First column is AoA (deg) and first row is Reynolds Number
0.000000	200000.000000	300000.000000	400000.000000	500000.000000	600000.000000	700000.000000	800000.000000	900000.000000	1000000.000000	1100000.000000	1200000.000000	1300000.000000	1400000.000000	1500000.000000	1600000.000000	1700000.000000	1800000.000000	1900000.000000	2000000.000000	2100000.000000	2200000.000000	2300000.000000	2400000.000000	2500000.000000	2600000.000000	2700000.000000	2800000.000000	2900000.000000	3000000.000000	3100000.000000	3200000.000000	3300000.000000	3400000.000000	3500000.000000	3600000.000000	3700000.000000	3800000.000000	3900000.000000	4000000.000000
-180.000000	-0.039200	-0.040000	-0.040600	-0.041000	-0.041300	-0.041500	-0.041700	-0.041900	-0.042100	-0.042200	-0.042300	-0.042400	-0.042500	-0.042600	-0.042700	-0.042800	-0.042900	-0.042900	-0.043000	-0.043000	-0.043100	-0.043200	-0.043200	-0.043300	-0.043300	-0.043300	-0.043400	-0.043400	-0.043500	-0.043500	-0.043500	-0.043600	-0.043600	-0.043600	-0.043700	-0.043700	-0.043700	-0.043800	-0.043800
-179.000000	0.048700	0.047800	0.043300	0.026400	-0.002200	-0.007200	0.019900	0.042800	0.048300	0.049100	0.049200	0.049200	0.049200	0.049100	0.049100	0.049100	0.049100	0.049100	0.049100	0.049100	0.049100	0.049100	0.049100	0.049100	0.049100	0.049100	0.049000	0.049000	0.049000	0.049000	0.049000	0.049000	0.049000	0.049000	0.049000	0.049000	0.049000	0.049000	0.049000
-178.000000	0.134400	0.130300	0.115800	0.080100	0.034400	0.026500	0.069400	0.115600	0.134000	0.139200	0.140400	0.140700	0.140800	0.140900	0.141000	0.141000	0.141100	0.141100	0.141200	0.141200	0.141300	0.141300	0.141400	0.141400	0.141400	0.141400	0.141500	0.141500	0.141500	0.141600	0.141600	0.141600	0.141600	0.141600	0.141700	0.141700	0.141700	0.141700	0.141700
-177.000000	0.212800	0.200400	0.172200	0.122200	0.069100	0.059500	0.109500	0.171800	0.208000	0.223400	0.229200	0.231500	0.232300	0.232600	0.232800	0.233000	0.233100	0.233200	0.233300	0.233400	0.233500	0.233600	0.233600	0.233700	0.233800	0.233800	0.233900	0.234000	0.234000	0.234100	0.234100	0.234200	0.234200	0.234300	0.234300	0.234400	0.234400	0.234500	0.234500
-176.000000	0.275500	0.252100	0.212100	0.156100	0.102400	0.092000	0.143100	0.211100	0.262900	0.293000	0.308800	0.316900	0.321000	0.323100	0.324100	0.324700	0.325000	0.325200	0.325400	0.325500	0.325700	0.325800	0.325900	0.326000	0.326100	0.326200	0.326300	0.326400	0.326500	0.326600	0.326700	0.326800	0.326900	0.326900	0.327000	0.327100	0.327100	0.327200	0.327200
-175.000000	0.316800	0.284300	0.239200	0.184800	0.134500	0.123800	0.172700	0.237700	0.296300	0.339500	0.368300	0.386700	0.398300	0.405700	0.410300	0.413200	0.415000	0.416200	0.416900	0.417400	0.417800	0.418000	0.418200	0.418400	0.418500	0.418600	0.418800	0.418900	0.419000	0.419100	0.419300	0.419400	0.419500	0.419600	0.419700	0.419800	0.419800	0.419900	0.420000
-174.000000	0.337700	0.302200	0.258800	0.210600	0.165500	0.155000	0.199900	0.257100	0.313200	0.361500	0.399800	0.429100	0.450900	0.467100	0.478900	0.487700	0.494100	0.498800	0.502300	0.504800	0.506700	0.508100	0.509100	0.509900	0.510400	0.510800	0.511100	0.511300	0.511500	0.511700	0.511800	0.512000	0.512100	0.512200	0.512300	0.512400	0.512600	0.512700	0.512800
-173.000000	0.345800	0.312800	0.275300	0.234900	0.195700	0.185600	0.225700	0.273400	0.321700	0.366600	0.406600	0.441000	0.470100	0.494500	0.514700	0.531400	0.545100	0.556400	0.565700	0.573300	0.579600	0.584700	0.589000	0.592400	0.595200	0.597500	0.599300	0.600800	0.601900	0.602800	0.603500	0.604100	0.604500	0.604800	0.605000	0.605100	0.605300	0.605400	0.605500
-172.000000	0.349200	0.321700	0.291300	0.258600	0.225000	0.215600	0.250800	0.289400	0.328000	0.365200	0.400200	0.432500	0.462200	0.489100	0.513500	0.535400	0.555100	0.572700	0.588500	0.602600	0.615100	0.626300	0.636300	0.645200	0.653000	0.660000	0.666100	0.671600	0.676300	0.680500	0.684100	0.687200	0.689900	0.692200	0.694000	0.695500	0.696700	0.697500	0.698100
-171.000000	0.353400	0.331700	0.308000	0.282000	0.253600	0.244900	0.275500	0.306000	0.335800	0.364400	0.391900	0.418100	0.443100	0.466900	0.489500	0.511000	0.531400	0.550700	0.569100	0.586500	0.603000	0.618700	0.633500	0.647600	0.660900	0.673500	0.685400	0.696700	0.707400	0.717400	0.726900	0.735700	0.744100	0.751900	0.759200	0.765900	0.772100	0.777800	0.782800
-170.000000	0.360500	0.343900	0.325800	0.305300	0.281500	0.273500	0.299800	0.323800	0.346100	0.367400	0.387600	0.407100	0.425900	0.444200	0.461900	0.479100	0.496000	0.512500	0.528800	0.544700	0.560300	0.575800	0.591000	0.606100	0.621000	0.635800	0.650400	0.665000	0.679500	0.694000	0.708400	0.722900	0.737400	0.752000	0.766700	0.781600	0.796800	0.812400	0.828700
-169.000000	0.370900	0.358400	0.344500	0.328500	0.308700	0.301400	0.323900	0.342500	0.359200	0.374600	0.389100	0.402900	0.416200	0.429200	0.441800	0.454200	0.466400	0.478600	0.490600	0.502600	0.514600	0.526700	0.538800	0.551100	0.563500	0.576200	0.589000	0.602200	0.615800	0.629700	0.644200	0.659200	0.675000	0.691600	0.709400	0.728500	0.749400	0.772800	0.799700
-168.000000	0.384200	0.374700	0.364200	0.351600	0.335200	0.328600	0.347700	0.362100	0.374400	0.385500	0.395700	0.405300	0.414500	0.423300	0.431900	0.440300	0.448600	0.456800	0.465000	0.473200	0.481400	0.489700	0.498100	0.506700	0.515400	0.524400	0.533600	0.543100	0.553100	0.563500	0.574400	0.586100	0.598500	0.612000	0.626800	0.643200	0.661900	0.683900	0.710900
-167.000000	0.399700	0.392500	0.384400	0.374500	0.361000	0.355100	0.371100	0.382200	0.391300	0.399200	0.406400	0.413000	0.419200	0.425200	0.430900	0.436500	0.441900	0.447300	0.452700	0.458000	0.463300	0.468700	0.474100	0.479700	0.485300	0.491100	0.497100	0.503300	0.509700	0.516500	0.523700	0.531400	0.539600	0.548600	0.558600	0.569800	0.582800	0.598300	0.618000
-166.000000	0.416800	0.411200	0.404900	0.397200	0.386000	0.380800	0.394200	0.402700	0.409300	0.415000	0.420000	0.424500	0.428700	0.432700	0.436500	0.440100	0.443700	0.447200	0.450600	0.454000	0.457400	0.460800	0.464200	0.467700	0.471200	0.474800	0.478500	0.482400	0.486400	0.490600	0.495000	0.499700	0.504800	0.510300	0.516400	0.523300	0.531300	0.540900	0.553100
-165.000000	0.435000	0.430500	0.425600	0.419500	0.410300	0.405800	0.416800	0.423300	0.428100	0.432100	0.435600	0.438600	0.441500	0.444100	0.446600	0.449000	0.451300	0.453500	0.455700	0.457900	0.460000	0.462200	0.464300	0.466400	0.468600	0.470900	0.473100	0.475500	0.477900	0.480500	0.483100	0.486000	0.489000	0.492300	0.495900	0.500000	0.504700	0.510400	0.517500
-164.000000	0.453800	0.450100	0.446100	0.441300	0.433900	0.429900	0.438900	0.443800	0.447300	0.450000	0.452400	0.454500	0.456400	0.458100	0.459800	0.461300	0.462800	0.464200	0.465600	0.466900	0.468300	0.469600	0.470900	0.472300	0.473600	0.475000	0.476400	0.477800	0.479300	0.480800	0.482400	0.484100	0.485900	0.487900	0.490000	0.492400	0.495200	0.498500	0.502600
-163.000000	0.472800	0.469700	0.466500	0.462700	0.456600	0.453200	0.460400	0.464000	0.466500	0.468400	0.470000	0.471400	0.472600	0.473800	0.474800	0.475800	0.476700	0.477600	0.478500	0.479300	0.480100	0.480900	0.481800	0.482600	0.483400	0.484200	0.485100	0.485900	0.486800	0.487700	0.488700	0.489700	0.490800	0.491900	0.493200	0.494600	0.496200	0.498100	0.500500
-162.000000	0.491900	0.489200	0.486500	0.483400	0.478600	0.475600	0.481300	0.483900	0.485600	0.486900	0.487900	0.488800	0.489600	0.490300	0.490900	0.491500	0.492100	0.492600	0.493200	0.493700	0.494200	0.494600	0.495100	0.495600	0.496100	0.496600	0.497100	0.497600	0.498100	0.498600	0.499200	0.499800	0.500400	0.501100	0.501900	0.502700	0.503600	0.504700	0.506100
-161.000000	0.510800	0.508300	0.506100	0.503600	0.499700	0.497200	0.501600	0.503300	0.504500	0.505300	0.505900	0.506400	0.506900	0.507300	0.507600	0.508000	0.508300	0.508600	0.508900	0.509200	0.509400	0.509700	0.510000	0.510200	0.510500	0.510800	0.511000	0.511300	0.511600	0.511900	0.512200	0.512600	0.512900	0.513300	0.513800	0.514200	0.514800	0.515400	0.516200
-160.000000	0.529300	0.527000	0.525100	0.523000	0.519900	0.517800	0.521000	0.522200	0.522900	0.523300	0.523700	0.523900	0.524100	0.524300	0.524500	0.524700	0.524800	0.524900	0.525100	0.525200	0.525300	0.525400	0.525600	0.525700	0.525800	0.525900	0.526100	0.526200	0.526400	0.526500	0.526700	0.526900	0.527000	0.527200	0.527500	0.527700	0.528000	0.528400	0.528800
-159.000000	0.547400	0.545200	0.543400	0.541700	0.539300	0.537600	0.539800	0.540400	0.540800	0.540900	0.541000	0.541100	0.541200	0.541200	0.541200	0.541300	0.541300	0.541300	0.541300	0.541400	0.541400	0.541400	0.541400	0.541500	0.541500	0.541500	0.541600	0.541600	0.541700	0.541700	0.541800	0.541900	0.541900	0.542000	0.542100	0.542200	0.542400	0.542500	0.542800
-158.000000	0.564800	0.562700	0.561100	0.559700	0.557800	0.556400	0.557700	0.558000	0.558000	0.558000	0.557900	0.557900	0.557800	0.557700	0.557600	0.557600	0.557500	0.557500	0.557400	0.557400	0.557300	0.557300	0.557200	0.557200	0.557200	0.557100	0.557100	0.557100	0.557100	0.557100	0.557100	0.557100	0.557100	0.557100	0.557100	0.557100	0.557200	0.557200	0.557300
-157.000000	0.581600	0.579500	0.578000	0.576800	0.575400	0.574300	0.574800	0.574700	0.574600	0.574400	0.574200	0.574000	0.573900	0.573700	0.573600	0.573400	0.573300	0.573200	0.573100	0.573000	0.572900	0.572800	0.572700	0.572600	0.572600	0.572500	0.572400	0.572400	0.572300	0.572200	0.572200	0.572100	0.572100	0.572100	0.572000	0.572000	0.572000	0.572000	0.572000
-156.000000	0.597700	0.595600	0.594100	0.593000	0.592000	0.591200	0.591000	0.590700	0.590400	0.590100	0.589800	0.589500	0.589300	0.589100	0.588900	0.588700	0.588500	0.588400	0.588200	0.588100	0.588000	0.587800	0.587700	0.587600	0.587500	0.587400	0.587300	0.587200	0.587100	0.587000	0.586900	0.586900	0.586800	0.586700	0.586700	0.586600	0.586500	0.586500	0.586400
-155.000000	0.613000	0.610800	0.609400	0.608400	0.607700	0.607200	0.606400	0.605800	0.605400	0.605000	0.604600	0.604300	0.604000	0.603700	0.603500	0.603300	0.603100	0.602900	0.602700	0.602500	0.602400	0.602200	0.602100	0.602000	0.601800	0.601700	0.601600	0.601500	0.601400	0.601300	0.601200	0.601100	0.601000	0.600900	0.600800	0.600700	0.600600	0.600500	0.600400
-154.000000	0.627400	0.625200	0.623800	0.622900	0.622500	0.622100	0.620800	0.620100	0.619500	0.619000	0.618600	0.618300	0.617900	0.617600	0.617400	0.617100	0.616900	0.616700	0.616500	0.616300	0.616100	0.615900	0.615800	0.615600	0.615500	0.615300	0.615200	0.615100	0.614900	0.614800	0.614700	0.614600	0.614500	0.614400	0.614300	0.614200	0.614100	0.614000	0.613900
-153.000000	0.641000	0.638800	0.637300	0.636400	0.636200	0.636100	0.634300	0.633400	0.632800	0.632200	0.631800	0.631400	0.631000	0.630700	0.630400	0.630100	0.629900	0.629700	0.629400	0.629200	0.629000	0.628800	0.628700	0.628500	0.628300	0.628200	0.628100	0.627900	0.627800	0.627600	0.627500	0.627400	0.627300	0.627200	0.627000	0.626900	0.626800	0.626700	0.626600
-152.000000	0.653700	0.651400	0.649900	0.649000	0.649000	0.649000	0.646800	0.645800	0.645100	0.644500	0.644100	0.643600	0.643200	0.642900	0.642600	0.642300	0.642000	0.641800	0.641500	0.641300	0.641100	0.640900	0.640700	0.640600	0.640400	0.640200	0.640100	0.639900	0.639800	0.639600	0.639500	0.639400	0.639200	0.639100	0.639000	0.638900	0.638700	0.638600	0.638500
-151.000000	0.665400	0.663000	0.661500	0.660700	0.660800	0.661000	0.658400	0.657300	0.656600	0.655900	0.655400	0.655000	0.654600	0.654200	0.653900	0.653600	0.653300	0.653000	0.652800	0.652500	0.652300	0.652100	0.651900	0.651700	0.651600	0.651400	0.651200	0.651100	0.650900	0.650800	0.650600	0.650500	0.650400	0.650200	0.650100	0.650000	0.649800	0.649700	0.649600
-150.000000	0.676200	0.673800	0.672200	0.671300	0.671600	0.671900	0.669000	0.667800	0.667000	0.666400	0.665800	0.665400	0.664900	0.664600	0.664200	0.663900	0.663600	0.663300	0.663100	0.662800	0.662600	0.662400	0.662200	0.662000	0.661800	0.661700	0.661500	0.661300	0.661200	0.661000	0.660900	0.660700	0.660600	0.660500	0.660300	0.660200	0.660000	0.659900	0.659800
-149.000000	0.686000	0.683500	0.681900	0.681000	0.681300	0.681800	0.678600	0.677400	0.676500	0.675900	0.675300	0.674800	0.674400	0.674000	0.673600	0.673300	0.673000	0.672700	0.672500	0.672200	0.672000	0.671800	0.671600	0.671400	0.671200	0.671000	0.670800	0.670600	0.670500	0.670300	0.670200	0.670000	0.669900	0.669700	0.669600	0.669500	0.669300	0.669200	0.669100
-148.000000	0.694900	0.692300	0.690600	0.689700	0.690100	0.681900	0.687200	0.686000	0.685100	0.684400	0.683800	0.683300	0.682800	0.682400	0.682100	0.681700	0.681400	0.681100	0.680900	0.680600	0.680400	0.680200	0.679900	0.679700	0.679500	0.679400	0.679200	0.679000	0.678800	0.678700	0.678500	0.678400	0.678200	0.678100	0.678000	0.677800	0.677700	0.677500	0.677400
-147.000000	0.702700	0.700000	0.698400	0.697400	0.697800	0.689900	0.694800	0.693500	0.692600	0.691900	0.691300	0.690800	0.690300	0.689900	0.689600	0.689200	0.688900	0.688600	0.688300	0.688100	0.687800	0.687600	0.687400	0.687200	0.687000	0.686800	0.686600	0.686400	0.686200	0.686100	0.685900	0.685800	0.685600	0.685500	0.685300	0.685200	0.685100	0.684900	0.684800
-146.000000	0.709600	0.706800	0.705100	0.704100	0.704500	0.696900	0.701400	0.700100	0.699200	0.698500	0.697800	0.697300	0.696800	0.696400	0.696000	0.695700	0.695400	0.695100	0.694800	0.694500	0.694300	0.694000	0.693800	0.693600	0.693400	0.693200	0.693000	0.692800	0.692700	0.692500	0.692300	0.692200	0.692000	0.691900	0.691700	0.691600	0.691500	0.691300	0.691200
-145.000000	0.715500	0.712600	0.710800	0.709800	0.710200	0.702800	0.707000	0.705700	0.704700	0.704000	0.703400	0.702800	0.702400	0.701900	0.701500	0.701200	0.700900	0.700500	0.700300	0.700000	0.699700	0.699500	0.699300	0.699100	0.698800	0.698700	0.698500	0.698300	0.698100	0.697900	0.697800	0.697600	0.697500	0.697300	0.697200	0.697000	0.696900	0.696700	0.696600
-144.000000	0.720300	0.717400	0.715500	0.714400	0.714900	0.707700	0.711600	0.710200	0.709300	0.708500	0.707900	0.707400	0.706900	0.706400	0.706100	0.705700	0.705400	0.705000	0.704700	0.704500	0.704200	0.704000	0.703700	0.703500	0.703300	0.703100	0.702900	0.702700	0.702600	0.702400	0.702200	0.702100	0.701900	0.701800	0.701600	0.701500	0.701300	0.701200	0.701000
-143.000000	0.724100	0.721100	0.719200	0.718100	0.718600	0.711600	0.715200	0.713800	0.712900	0.712100	0.711500	0.710900	0.710400	0.710000	0.709600	0.709200	0.708900	0.708500	0.708200	0.708000	0.707700	0.707500	0.707200	0.707000	0.706800	0.706600	0.706400	0.706200	0.706000	0.705900	0.705700	0.705500	0.705400	0.705200	0.705100	0.704900	0.704800	0.704600	0.704500
-142.000000	0.727000	0.723900	0.721900	0.720800	0.721200	0.714400	0.717800	0.716400	0.715400	0.714700	0.714000	0.713400	0.713000	0.712500	0.712100	0.711700	0.711400	0.711000	0.710700	0.710500	0.710200	0.710000	0.709700	0.709500	0.709300	0.709100	0.708900	0.708700	0.708500	0.708300	0.708200	0.708000	0.707800	0.707700	0.707500	0.707400	0.707200	0.707100	0.706900
-141.000000	0.728800	0.725600	0.723600	0.722400	0.722800	0.716200	0.719400	0.718000	0.717000	0.716200	0.715600	0.715000	0.714500	0.714000	0.713600	0.713300	0.712900	0.712600	0.712300	0.712000	0.711700	0.711500	0.711200	0.711000	0.710800	0.710600	0.710400	0.710200	0.710000	0.709800	0.709700	0.709500	0.709300	0.709200	0.709000	0.708900	0.708700	0.708600	0.708400
-140.000000	0.729600	0.726400	0.724300	0.723100	0.723500	0.717000	0.720000	0.718600	0.717600	0.716800	0.716100	0.715600	0.715100	0.714600	0.714200	0.713800	0.713400	0.713100	0.712800	0.712500	0.712300	0.712000	0.711800	0.711500	0.711300	0.711100	0.710900	0.710700	0.710500	0.710300	0.710200	0.710000	0.709800	0.709700	0.709500	0.709400	0.709200	0.709100	0.708900
-139.000000	0.729400	0.726100	0.724000	0.722800	0.723100	0.716900	0.719600	0.718200	0.717200	0.716400	0.715700	0.715200	0.714700	0.714200	0.713800	0.713400	0.713000	0.712700	0.712400	0.712100	0.711800	0.711600	0.711300	0.711100	0.710900	0.710600	0.710400	0.710200	0.710100	0.709900	0.709700	0.709500	0.709400	0.709200	0.709100	0.708900	0.708800	0.708600	0.708500
-138.000000	0.728300	0.724900	0.722700	0.721500	0.721800	0.715700	0.718300	0.716800	0.715800	0.715000	0.714400	0.713800	0.713300	0.712800	0.712400	0.712000	0.711600	0.711300	0.711000	0.710700	0.710400	0.710200	0.709900	0.709700	0.709400	0.709200	0.709000	0.708800	0.708600	0.708500	0.708300	0.708100	0.708000	0.707800	0.707600	0.707500	0.707300	0.707200	0.707000
-137.000000	0.726100	0.722700	0.720500	0.719200	0.719500	0.713600	0.715900	0.714500	0.713500	0.712700	0.712000	0.711500	0.710900	0.710500	0.710000	0.709700	0.709300	0.708900	0.708600	0.708300	0.708100	0.707800	0.707500	0.707300	0.707100	0.706900	0.706700	0.706500	0.706300	0.706100	0.705900	0.705700	0.705600	0.705400	0.705300	0.705100	0.705000	0.704800	0.704700
-136.000000	0.723000	0.719500	0.717300	0.716000	0.716300	0.710400	0.712700	0.711200	0.710300	0.709500	0.708800	0.708200	0.707700	0.707200	0.706800	0.706400	0.706000	0.705700	0.705300	0.705000	0.704800	0.704500	0.704200	0.704000	0.703800	0.703600	0.703400	0.703200	0.703000	0.702800	0.702600	0.702400	0.702300	0.702100	0.702000	0.701800	0.701600	0.701500	0.701400
-135.000000	0.719000	0.715400	0.713200	0.711800	0.712100	0.706400	0.708500	0.707000	0.706000	0.705200	0.704600	0.704000	0.703500	0.703000	0.702500	0.702200	0.701800	0.701400	0.701100	0.700800	0.700500	0.700300	0.700000	0.699800	0.699600	0.699300	0.699100	0.698900	0.698700	0.698500	0.698400	0.698200	0.698000	0.697900	0.697700	0.697600	0.697400	0.697300	0.697100
-134.000000	0.714000	0.710400	0.708100	0.706700	0.706900	0.701400	0.703300	0.701900	0.700900	0.700100	0.699400	0.698900	0.698300	0.697900	0.697400	0.697000	0.696600	0.696300	0.696000	0.695700	0.695400	0.695100	0.694900	0.694600	0.694400	0.694200	0.694000	0.693800	0.693600	0.693400	0.693200	0.693100	0.692900	0.692700	0.692600	0.692400	0.692300	0.692100	0.692000
-133.000000	0.708000	0.704400	0.702100	0.700700	0.700900	0.695500	0.697300	0.695900	0.694900	0.694100	0.693400	0.692800	0.692300	0.691800	0.691400	0.691000	0.690600	0.690300	0.689900	0.689600	0.689400	0.689100	0.688800	0.688600	0.688400	0.688100	0.687900	0.687700	0.687500	0.687400	0.687200	0.687000	0.686800	0.686700	0.686500	0.686400	0.686200	0.686100	0.685900
-132.000000	0.701200	0.697600	0.695200	0.693800	0.694000	0.688700	0.690400	0.688900	0.688000	0.687200	0.686500	0.685900	0.685400	0.684900	0.684500	0.684100	0.683700	0.683300	0.683000	0.682700	0.682400	0.682200	0.681900	0.681700	0.681400	0.681200	0.681000	0.680800	0.680600	0.680400	0.680300	0.680100	0.679900	0.679800	0.679600	0.679400	0.679300	0.679100	0.679000
-131.000000	0.693400	0.689800	0.687500	0.686000	0.686100	0.681000	0.682600	0.681100	0.680200	0.679400	0.678700	0.678100	0.677600	0.677100	0.676700	0.676300	0.675900	0.675600	0.675200	0.674900	0.674700	0.674400	0.674100	0.673900	0.673700	0.673400	0.673200	0.673000	0.672800	0.672700	0.672500	0.672300	0.672100	0.672000	0.671800	0.671700	0.671500	0.671400	0.671200
-130.000000	0.684800	0.681200	0.678800	0.677300	0.677500	0.672400	0.673900	0.672500	0.671500	0.670700	0.670100	0.669500	0.669000	0.668500	0.668000	0.667600	0.667300	0.666900	0.666600	0.666300	0.666000	0.665800	0.665500	0.665300	0.665000	0.664800	0.664600	0.664400	0.664200	0.664000	0.663800	0.663700	0.663500	0.663300	0.663200	0.663000	0.662900	0.662700	0.662600
-129.000000	0.675400	0.671700	0.669300	0.667800	0.664200	0.663000	0.664400	0.663000	0.662000	0.661300	0.660600	0.660000	0.659500	0.659000	0.658600	0.658200	0.657800	0.657500	0.657100	0.656800	0.656600	0.656300	0.656000	0.655800	0.655600	0.655400	0.655100	0.654900	0.654800	0.654600	0.654400	0.654200	0.654100	0.653900	0.653700	0.653600	0.653400	0.653300	0.653100
-128.000000	0.665000	0.661400	0.659000	0.657500	0.654000	0.652800	0.654100	0.652700	0.651800	0.651000	0.650300	0.649700	0.649200	0.648700	0.648300	0.647900	0.647500	0.647200	0.646900	0.646600	0.646300	0.646000	0.645800	0.645500	0.645300	0.645100	0.644900	0.644700	0.644500	0.644300	0.644100	0.644000	0.643800	0.643600	0.643500	0.643300	0.643200	0.643000	0.642900
-127.000000	0.653900	0.650300	0.647900	0.646400	0.642900	0.641800	0.642900	0.641600	0.640700	0.639900	0.639200	0.638600	0.638100	0.637700	0.637200	0.636800	0.636500	0.636100	0.635800	0.635500	0.635200	0.635000	0.634700	0.634500	0.634300	0.634000	0.633800	0.633600	0.633500	0.633300	0.633100	0.632900	0.632800	0.632600	0.632400	0.632300	0.632100	0.632000	0.631900
-126.000000	0.642000	0.638300	0.636000	0.634500	0.631100	0.629900	0.631100	0.629700	0.628800	0.628000	0.627400	0.626800	0.626300	0.625800	0.625400	0.625000	0.624600	0.624300	0.624000	0.623700	0.623400	0.623200	0.622900	0.622700	0.622400	0.622200	0.622000	0.621800	0.621600	0.621500	0.621300	0.621100	0.621000	0.620800	0.620700	0.620500	0.620400	0.620200	0.620100
-125.000000	0.629300	0.625700	0.623300	0.621800	0.618500	0.617400	0.618400	0.617100	0.616200	0.615400	0.614800	0.614200	0.613700	0.613200	0.612800	0.612400	0.612100	0.611700	0.611400	0.611100	0.610900	0.610600	0.610400	0.610100	0.609900	0.609700	0.609500	0.609300	0.609100	0.608900	0.608700	0.608600	0.608400	0.608300	0.608100	0.608000	0.607800	0.607700	0.607500
-124.000000	0.615800	0.612200	0.609900	0.608400	0.605200	0.604000	0.605000	0.603700	0.602800	0.602100	0.601400	0.600900	0.600400	0.599900	0.599500	0.599100	0.598800	0.598400	0.598100	0.597800	0.597600	0.597300	0.597100	0.596800	0.596600	0.596400	0.596200	0.596000	0.595800	0.595700	0.595500	0.595300	0.595200	0.595000	0.594900	0.594700	0.594600	0.594400	0.594300
-123.000000	0.601600	0.598100	0.595700	0.594300	0.591100	0.590000	0.590900	0.589700	0.588800	0.588000	0.587400	0.586900	0.586400	0.585900	0.585500	0.585100	0.584800	0.584500	0.584100	0.583900	0.583600	0.583300	0.583100	0.582900	0.582700	0.582500	0.582300	0.582100	0.581900	0.581700	0.581500	0.581400	0.581200	0.581100	0.580900	0.580800	0.580600	0.580500	0.580400
-122.000000	0.586700	0.583200	0.580900	0.579500	0.576400	0.575300	0.576200	0.574900	0.574000	0.573300	0.572700	0.572200	0.571700	0.571200	0.570800	0.570500	0.570100	0.569800	0.569500	0.569200	0.568900	0.568700	0.568500	0.568200	0.568000	0.567800	0.567600	0.567400	0.567300	0.567100	0.566900	0.566800	0.566600	0.566500	0.566300	0.566200	0.566000	0.565900	0.565800
-121.000000	0.571100	0.567700	0.565400	0.564000	0.561000	0.559900	0.560700	0.559500	0.558700	0.557900	0.557300	0.556800	0.556300	0.555900	0.555500	0.555100	0.554800	0.554500	0.554200	0.553900	0.553600	0.553400	0.553200	0.552900	0.552700	0.552500	0.552300	0.552200	0.552000	0.551800	0.551700	0.551500	0.551300	0.551200	0.551100	0.550900	0.550800	0.550700	0.550500
-120.000000	0.554900	0.551500	0.549300	0.547900	0.545000	0.543900	0.544700	0.543500	0.542600	0.541900	0.541300	0.540800	0.540400	0.539900	0.539500	0.539200	0.538800	0.538500	0.538200	0.538000	0.537700	0.537500	0.537300	0.537000	0.536800	0.536600	0.536400	0.536300	0.536100	0.535900	0.535800	0.535600	0.535500	0.535300	0.535200	0.535000	0.534900	0.534800	0.534700
-119.000000	0.538000	0.534700	0.532500	0.531100	0.528300	0.527300	0.528000	0.526800	0.526000	0.525300	0.524700	0.524200	0.523800	0.523400	0.523000	0.522600	0.522300	0.522000	0.521700	0.521400	0.521200	0.521000	0.520700	0.520500	0.520300	0.520100	0.520000	0.519800	0.519600	0.519400	0.519300	0.519100	0.519000	0.518900	0.518700	0.518600	0.518500	0.518300	0.518200
-118.000000	0.520500	0.517300	0.515100	0.513800	0.511100	0.510000	0.509200	0.509600	0.508800	0.508100	0.507600	0.507100	0.506600	0.506200	0.505800	0.505500	0.505200	0.504900	0.504600	0.504300	0.504100	0.503900	0.503700	0.503400	0.503200	0.503100	0.502900	0.502700	0.502500	0.502400	0.502200	0.502100	0.501900	0.501800	0.501700	0.501500	0.501400	0.501300	0.501200
-117.000000	0.502400	0.499300	0.497200	0.495900	0.493200	0.492200	0.491400	0.491800	0.491000	0.490400	0.489800	0.489300	0.488900	0.488500	0.488100	0.487800	0.487500	0.487200	0.486900	0.486700	0.486500	0.486200	0.486000	0.485800	0.485600	0.485400	0.485300	0.485100	0.484900	0.484800	0.484600	0.484500	0.484400	0.484200	0.484100	0.484000	0.483800	0.483700	0.483600
-116.000000	0.483800	0.480700	0.478700	0.476100	0.474900	0.473900	0.473100	0.473500	0.472700	0.472100	0.471600	0.471100	0.470700	0.470300	0.469900	0.469600	0.469300	0.469000	0.468800	0.468500	0.468300	0.468100	0.467900	0.467700	0.467500	0.467300	0.467100	0.467000	0.466800	0.466700	0.466500	0.466400	0.466200	0.466100	0.466000	0.465900	0.465800	0.465600	0.465500
-115.000000	0.464600	0.461700	0.459700	0.457200	0.456000	0.455100	0.454300	0.454700	0.453900	0.453300	0.452800	0.452300	0.451900	0.451600	0.451200	0.450900	0.450600	0.450300	0.450100	0.449800	0.449600	0.449400	0.449200	0.449000	0.448800	0.448700	0.448500	0.448300	0.448200	0.448100	0.447900	0.447800	0.447600	0.447500	0.447400	0.447300	0.447200	0.447100	0.446900
-114.000000	0.445000	0.442100	0.440300	0.437800	0.436700	0.435700	0.435000	0.435300	0.434600	0.434000	0.433500	0.433100	0.432700	0.432300	0.432000	0.431700	0.431400	0.431200	0.430900	0.430700	0.430500	0.430300	0.430100	0.429900	0.429700	0.429600	0.429400	0.429300	0.429100	0.429000	0.428800	0.428700	0.428600	0.428500	0.428300	0.428200	0.428100	0.428000	0.427900
-113.000000	0.424900	0.422100	0.419300	0.417900	0.416800	0.416000	0.415200	0.414600	0.414900	0.414300	0.413800	0.413400	0.413000	0.412700	0.412400	0.412100	0.411800	0.411600	0.411300	0.411100	0.410900	0.410700	0.410500	0.410300	0.410200	0.410000	0.409900	0.409700	0.409600	0.409400	0.409300	0.409200	0.409100	0.409000	0.408800	0.408700	0.408600	0.408500	0.408400
-112.000000	0.404300	0.401600	0.399000	0.397600	0.396600	0.395700	0.395100	0.394500	0.394700	0.394200	0.393700	0.393300	0.393000	0.392600	0.392300	0.392000	0.391800	0.391500	0.391300	0.391100	0.390900	0.390700	0.390500	0.390400	0.390200	0.390100	0.389900	0.389800	0.389600	0.389500	0.389400	0.389300	0.389100	0.389000	0.388900	0.388800	0.388700	0.388600	0.388500
-111.000000	0.383300	0.380000	0.378200	0.376900	0.375900	0.375100	0.374500	0.373900	0.373400	0.373700	0.373200	0.372800	0.372500	0.372200	0.371900	0.371600	0.371400	0.371100	0.370900	0.370700	0.370500	0.370300	0.370200	0.370000	0.369800	0.369700	0.369600	0.369400	0.369300	0.369200	0.369100	0.368900	0.368800	0.368700	0.368600	0.368500	0.368400	0.368300	0.368200
-110.000000	0.361200	0.358700	0.357100	0.355800	0.354900	0.354100	0.353500	0.353000	0.352500	0.352100	0.352300	0.352000	0.351600	0.351300	0.351000	0.350800	0.350600	0.350300	0.350100	0.349900	0.349800	0.349600	0.349400	0.349300	0.349100	0.349000	0.348900	0.348700	0.348600	0.348500	0.348400	0.348300	0.348200	0.348100	0.348000	0.347900	0.347800	0.347700	0.347600
-109.000000	0.339400	0.337100	0.335600	0.334400	0.333500	0.332800	0.332200	0.331700	0.331200	0.330800	0.330500	0.330700	0.330400	0.330100	0.329900	0.329600	0.329400	0.329200	0.329000	0.328800	0.328700	0.328500	0.328300	0.328200	0.328100	0.327900	0.327800	0.327700	0.327600	0.327500	0.327400	0.327300	0.327200	0.327100	0.327000	0.326900	0.326800	0.326700	0.326600
-108.000000	0.317400	0.315200	0.313700	0.312600	0.311800	0.311100	0.310600	0.310100	0.309700	0.309300	0.309000	0.308700	0.308400	0.308600	0.308400	0.308200	0.308000	0.307800	0.307600	0.307400	0.307300	0.307100	0.307000	0.306800	0.306700	0.306600	0.306400	0.306300	0.306200	0.306100	0.306000	0.305900	0.305800	0.305700	0.305700	0.305600	0.305500	0.305400	0.305300
-107.000000	0.295000	0.293000	0.291600	0.290600	0.289800	0.289100	0.288600	0.288200	0.287800	0.287400	0.287100	0.286900	0.286600	0.286400	0.286200	0.286400	0.286200	0.286000	0.285900	0.285700	0.285600	0.285400	0.285300	0.285200	0.285000	0.284900	0.284800	0.284700	0.284600	0.284500	0.284400	0.284300	0.284200	0.284100	0.284100	0.284000	0.283900	0.283800	0.283800
-106.000000	0.272300	0.270400	0.269200	0.268200	0.267500	0.266900	0.266400	0.266000	0.265600	0.265300	0.265000	0.264800	0.264600	0.264300	0.264100	0.264000	0.263800	0.263600	0.263500	0.263700	0.263600	0.263500	0.263300	0.263200	0.263100	0.263000	0.262900	0.262800	0.262700	0.262600	0.262500	0.262400	0.262400	0.262300	0.262200	0.262100	0.262100	0.262000	0.261900
-105.000000	0.249400	0.247700	0.246500	0.245600	0.245000	0.244400	0.244000	0.243600	0.243300	0.243000	0.242700	0.242500	0.242300	0.242100	0.241900	0.241700	0.241600	0.241400	0.241300	0.241100	0.241000	0.240900	0.240800	0.240700	0.240600	0.240900	0.240800	0.240700	0.240600	0.240500	0.240400	0.240300	0.240300	0.240200	0.240100	0.240100	0.240000	0.239900	0.239900
-104.000000	0.226200	0.224700	0.223600	0.222800	0.222200	0.221700	0.221300	0.221000	0.220700	0.220400	0.220200	0.220000	0.219800	0.219600	0.219400	0.219300	0.219100	0.219000	0.218900	0.218700	0.218600	0.218500	0.218400	0.218300	0.218300	0.218200	0.218100	0.218000	0.217900	0.217900	0.217800	0.218000	0.218000	0.217900	0.217800	0.217800	0.217700	0.217700	0.217600
-103.000000	0.202900	0.201500	0.200500	0.199800	0.199300	0.198800	0.198500	0.198200	0.197900	0.197600	0.197400	0.197200	0.197100	0.196900	0.196800	0.196600	0.196500	0.196400	0.196300	0.196200	0.196100	0.196000	0.195900	0.195800	0.195700	0.195600	0.195600	0.195500	0.195400	0.195400	0.195300	0.195200	0.195200	0.195100	0.195100	0.195000	0.195000	0.195200	0.195200
-102.000000	0.179400	0.178100	0.177300	0.176600	0.176200	0.175800	0.175500	0.175200	0.174900	0.174700	0.174500	0.174400	0.174200	0.174100	0.173900	0.173800	0.173700	0.173600	0.173500	0.173400	0.173300	0.173200	0.173200	0.173100	0.173000	0.173000	0.172900	0.172800	0.172800	0.172700	0.172700	0.172600	0.172600	0.172500	0.172500	0.172400	0.172400	0.172300	0.172300
-101.000000	0.155700	0.154600	0.153900	0.153300	0.152900	0.152600	0.152300	0.152100	0.151900	0.151700	0.151500	0.151400	0.151200	0.151100	0.151000	0.150900	0.150800	0.150700	0.150600	0.150500	0.150500	0.150400	0.150300	0.150300	0.150200	0.150100	0.150100	0.150000	0.150000	0.149900	0.149900	0.149800	0.149800	0.149800	0.149700	0.149700	0.149600	0.149600	0.149600
-100.000000	0.131900	0.131000	0.130400	0.129900	0.129600	0.129300	0.129000	0.128800	0.128700	0.128500	0.128400	0.128200	0.128100	0.128000	0.127900	0.127800	0.127800	0.127700	0.127600	0.127500	0.127500	0.127400	0.127400	0.127300	0.127300	0.127200	0.127200	0.127100	0.127100	0.127000	0.127000	0.127000	0.126900	0.126900	0.126900	0.126800	0.126800	0.126800	0.126700
-99.000000	0.108000	0.107300	0.106800	0.106400	0.106100	0.105900	0.105700	0.105500	0.105400	0.105300	0.105100	0.105000	0.105000	0.104900	0.104800	0.104700	0.104700	0.104600	0.104500	0.104500	0.104400	0.104400	0.104300	0.104300	0.104200	0.104200	0.104200	0.104100	0.104100	0.104100	0.104000	0.104000	0.104000	0.103900	0.103900	0.103900	0.103900	0.103800	0.103800
-98.000000	0.084100	0.083500	0.083100	0.082800	0.082600	0.082400	0.082300	0.082200	0.082100	0.082000	0.081900	0.081800	0.081700	0.081700	0.081600	0.081500	0.081500	0.081400	0.081400	0.081400	0.081300	0.081300	0.081200	0.081200	0.081200	0.081100	0.081100	0.081100	0.081100	0.081000	0.081000	0.081000	0.081000	0.080900	0.080900	0.080900	0.080900	0.080900	0.080800
-97.000000	0.060100	0.059700	0.059400	0.059200	0.059100	0.058900	0.058800	0.058800	0.058700	0.058600	0.058500	0.058500	0.058400	0.058400	0.058400	0.058300	0.058300	0.058300	0.058200	0.058200	0.058200	0.058100	0.058100	0.058100	0.058100	0.058000	0.058000	0.058000	0.058000	0.058000	0.058000	0.057900	0.057900	0.057900	0.057900	0.057900	0.057900	0.057900	0.057800
-96.000000	0.036100	0.035800	0.035700	0.035600	0.035500	0.035400	0.035400	0.035300	0.035300	0.035300	0.035200	0.035200	0.035200	0.035100	0.035100	0.035100	0.035100	0.035100	0.035000	0.035000	0.035000	0.035000	0.035000	0.035000	0.035000	0.034900	0.034900	0.034900	0.034900	0.034900	0.034900	0.034900	0.034900	0.034900	0.034900	0.034900	0.034800	0.034800	0.034800
-95.000000	0.012100	0.012000	0.012000	0.012000	0.012000	0.011900	0.011900	0.011900	0.011900	0.011900	0.011900	0.011900	0.011900	0.011900	0.011900	0.011900	0.011900	0.011900	0.011900	0.011900	0.011900	0.011900	0.011900	0.011900	0.011900	0.011900	0.011900	0.011900	0.011900	0.011800	0.011800	0.011800	0.011800	0.011800	0.011800	0.011800	0.011800	0.011800	0.011800
-94.000000	-0.011900	-0.011800	-0.011700	-0.011600	-0.011500	-0.011500	-0.011500	-0.011400	-0.011400	-0.011400	-0.011400	-0.011400	-0.011300	-0.011300	-0.011300	-0.011300	-0.011300	-0.011300	-0.011300	-0.011200	-0.011200	-0.011200	-0.011200	-0.011200	-0.011200	-0.011200	-0.011200	-0.011200	-0.011200	-0.011200	-0.011200	-0.011200	-0.011200	-0.011100	-0.011100	-0.011100	-0.011100	-0.011100	-0.011100
-93.000000	-0.035800	-0.035500	-0.035300	-0.035100	-0.035000	-0.034900	-0.034800	-0.034700	-0.034700	-0.034600	-0.034600	-0.034500	-0.034500	-0.034500	-0.034400	-0.034400	-0.034400	-0.034400	-0.034300	-0.034300	-0.034300	-0.034300	-0.034200	-0.034200	-0.034200	-0.034200	-0.034200	-0.034200	-0.034100	-0.034100	-0.034100	-0.034100	-0.034100	-0.034100	-0.034100	-0.034000	-0.034000	-0.034000	-0.034000
-92.000000	-0.059600	-0.059100	-0.058800	-0.058500	-0.058300	-0.058200	-0.058100	-0.058000	-0.057900	-0.057800	-0.057700	-0.057600	-0.057600	-0.057500	-0.057500	-0.057400	-0.057400	-0.057300	-0.057300	-0.057300	-0.057200	-0.057200	-0.057200	-0.057100	-0.057100	-0.057100	-0.057100	-0.057000	-0.057000	-0.057000	-0.057000	-0.057000	-0.056900	-0.056900	-0.056900	-0.056900	-0.056900	-0.056800	-0.056800
-91.000000	-0.083300	-0.082600	-0.082200	-0.081900	-0.081600	-0.081400	-0.081200	-0.081100	-0.080900	-0.080800	-0.080700	-0.080600	-0.080600	-0.080500	-0.080400	-0.080400	-0.080300	-0.080200	-0.080200	-0.080100	-0.080100	-0.080000	-0.080000	-0.080000	-0.079900	-0.079900	-0.079900	-0.079800	-0.079800	-0.079800	-0.079700	-0.079700	-0.079700	-0.079600	-0.079600	-0.079600	-0.079600	-0.079600	-0.079500
-90.000000	-0.106900	-0.106000	-0.105500	-0.105000	-0.104700	-0.104500	-0.104200	-0.104100	-0.103900	-0.103800	-0.103600	-0.103500	-0.103400	-0.103300	-0.103200	-0.103100	-0.103100	-0.103000	-0.102900	-0.102900	-0.102800	-0.102800	-0.102700	-0.102700	-0.102600	-0.102600	-0.102500	-0.102500	-0.102400	-0.102400	-0.102400	-0.102300	-0.102300	-0.102300	-0.102200	-0.102200	-0.102200	-0.102100	-0.102100
-89.000000	-0.130300	-0.129300	-0.128600	-0.128100	-0.127700	-0.127400	-0.127100	-0.126900	-0.126700	-0.126500	-0.126400	-0.126200	-0.126100	-0.126000	-0.125900	-0.125800	-0.125700	-0.125600	-0.125500	-0.125400	-0.125400	-0.125300	-0.125200	-0.125200	-0.125100	-0.125100	-0.125000	-0.125000	-0.124900	-0.124900	-0.124800	-0.124800	-0.124700	-0.124700	-0.124700	-0.124600	-0.124600	-0.124600	-0.124500
-88.000000	-0.153500	-0.152300	-0.151500	-0.150900	-0.150500	-0.150100	-0.149800	-0.149500	-0.149300	-0.149100	-0.148900	-0.148800	-0.148600	-0.148500	-0.148400	-0.148200	-0.148100	-0.148000	-0.147900	-0.147900	-0.147800	-0.147700	-0.147600	-0.147500	-0.147500	-0.147400	-0.147400	-0.147300	-0.147200	-0.147200	-0.147100	-0.147100	-0.147000	-0.147000	-0.146900	-0.146900	-0.146900	-0.146800	-0.146800
-87.000000	-0.176500	-0.175200	-0.174200	-0.173600	-0.173000	-0.172600	-0.172300	-0.172000	-0.171700	-0.171500	-0.171300	-0.171100	-0.170900	-0.170800	-0.170600	-0.170500	-0.170400	-0.170300	-0.170200	-0.170100	-0.170000	-0.169900	-0.169800	-0.169700	-0.169600	-0.169600	-0.169500	-0.169400	-0.169400	-0.169300	-0.169200	-0.169200	-0.169100	-0.169100	-0.169000	-0.169000	-0.168900	-0.168900	-0.168800
-86.000000	-0.199300	-0.197800	-0.196800	-0.196000	-0.195400	-0.194900	-0.194500	-0.194200	-0.193900	-0.193700	-0.193400	-0.193200	-0.193000	-0.192900	-0.192700	-0.192600	-0.192400	-0.192300	-0.192200	-0.192100	-0.192000	-0.191900	-0.191800	-0.191700	-0.191600	-0.191500	-0.191400	-0.191300	-0.191300	-0.191200	-0.191100	-0.191100	-0.191000	-0.190900	-0.190900	-0.190800	-0.190800	-0.190700	-0.190700
-85.000000	-0.221900	-0.220200	-0.219000	-0.218200	-0.217500	-0.217000	-0.216600	-0.216200	-0.215900	-0.215600	-0.215300	-0.215100	-0.214900	-0.214700	-0.214500	-0.214400	-0.214200	-0.214100	-0.213900	-0.213800	-0.213700	-0.213600	-0.213500	-0.213400	-0.213300	-0.213200	-0.213100	-0.213000	-0.212900	-0.212900	-0.212800	-0.212700	-0.212700	-0.212600	-0.212500	-0.212500	-0.212400	-0.212300	-0.212300
-84.000000	-0.244100	-0.242300	-0.241000	-0.240100	-0.239400	-0.238800	-0.238300	-0.237900	-0.237600	-0.237300	-0.237000	-0.236700	-0.236500	-0.236300	-0.236100	-0.235900	-0.235800	-0.235600	-0.235400	-0.235300	-0.235200	-0.235100	-0.234900	-0.234800	-0.234700	-0.234600	-0.234500	-0.234400	-0.234400	-0.234300	-0.234200	-0.234100	-0.234000	-0.234000	-0.233900	-0.233800	-0.233800	-0.233700	-0.233600
-83.000000	-0.266100	-0.264100	-0.262700	-0.261700	-0.260900	-0.260300	-0.259800	-0.259400	-0.259000	-0.258600	-0.258300	-0.258100	-0.257800	-0.257600	-0.257400	-0.257200	-0.257000	-0.256800	-0.256700	-0.256500	-0.256400	-0.256300	-0.256100	-0.256000	-0.255900	-0.255800	-0.255700	-0.255600	-0.255500	-0.255400	-0.255300	-0.255200	-0.255200	-0.255100	-0.255000	-0.254900	-0.254900	-0.254800	-0.254700
-82.000000	-0.287800	-0.285600	-0.284100	-0.283000	-0.282200	-0.281500	-0.281000	-0.280500	-0.280100	-0.279700	-0.279400	-0.279100	-0.278800	-0.278600	-0.278400	-0.278200	-0.278000	-0.277800	-0.277600	-0.277500	-0.277300	-0.277200	-0.277000	-0.276900	-0.276800	-0.276700	-0.276600	-0.276400	-0.276300	-0.276200	-0.276100	-0.276100	-0.276000	-0.275900	-0.275800	-0.275700	-0.275600	-0.275600	-0.275500
-81.000000	-0.309100	-0.306800	-0.305200	-0.304000	-0.303100	-0.302400	-0.301800	-0.301300	-0.300900	-0.300500	-0.300100	-0.299800	-0.299500	-0.299300	-0.299000	-0.298800	-0.298600	-0.298400	-0.298200	-0.298100	-0.297900	-0.297700	-0.297600	-0.297500	-0.297300	-0.297200	-0.297100	-0.297000	-0.296900	-0.296800	-0.296700	-0.296600	-0.296500	-0.296400	-0.296300	-0.296200	-0.296100	-0.296000	-0.296000
-80.000000	-0.330100	-0.327600	-0.325900	-0.324700	-0.323700	-0.323000	-0.322300	-0.321800	-0.321300	-0.320900	-0.320500	-0.320200	-0.319900	-0.319600	-0.319400	-0.319100	-0.318900	-0.318700	-0.318500	-0.318300	-0.318200	-0.318000	-0.317800	-0.317700	-0.317600	-0.317400	-0.317300	-0.317200	-0.317100	-0.316900	-0.316800	-0.316700	-0.316600	-0.316500	-0.316400	-0.316400	-0.316300	-0.316200	-0.316100
-79.000000	-0.350600	-0.348000	-0.346200	-0.344900	-0.343900	-0.343100	-0.342500	-0.341900	-0.341400	-0.341000	-0.340600	-0.340200	-0.339900	-0.339600	-0.339300	-0.339100	-0.338900	-0.338600	-0.338400	-0.338200	-0.338100	-0.337900	-0.337700	-0.337600	-0.337400	-0.337300	-0.337200	-0.337000	-0.336900	-0.336800	-0.336700	-0.336600	-0.336500	-0.336400	-0.336300	-0.336200	-0.336100	-0.336000	-0.335900
-78.000000	-0.370800	-0.368100	-0.366200	-0.364800	-0.363800	-0.362900	-0.362200	-0.361600	-0.361100	-0.360600	-0.360200	-0.359900	-0.359500	-0.359200	-0.358900	-0.358700	-0.358400	-0.358200	-0.358000	-0.357800	-0.357600	-0.357400	-0.357200	-0.357100	-0.356900	-0.356800	-0.356600	-0.356500	-0.356400	-0.356200	-0.356100	-0.356000	-0.355900	-0.355800	-0.355700	-0.355600	-0.355500	-0.355400	-0.355300
-77.000000	-0.390600	-0.387700	-0.385800	-0.384300	-0.383200	-0.382300	-0.381600	-0.381000	-0.380400	-0.379900	-0.379500	-0.379100	-0.378800	-0.378400	-0.378100	-0.377900	-0.377600	-0.377400	-0.377100	-0.376900	-0.376700	-0.376500	-0.376400	-0.376200	-0.376000	-0.375900	-0.375700	-0.375600	-0.375400	-0.375300	-0.375200	-0.375100	-0.375000	-0.374800	-0.374700	-0.374600	-0.374500	-0.374400	-0.374300
-76.000000	-0.409900	-0.406900	-0.404900	-0.403400	-0.402200	-0.401300	-0.400500	-0.399900	-0.399300	-0.398800	-0.398300	-0.397900	-0.397600	-0.397200	-0.396900	-0.396600	-0.396400	-0.396100	-0.395900	-0.395700	-0.395500	-0.395300	-0.395100	-0.394900	-0.394700	-0.394600	-0.394400	-0.394300	-0.394100	-0.394000	-0.393900	-0.393700	-0.393600	-0.393500	-0.393400	-0.393300	-0.393200	-0.393100	-0.393000
-75.000000	-0.428800	-0.425700	-0.423600	-0.422000	-0.420800	-0.419800	-0.419000	-0.418400	-0.417800	-0.417200	-0.416800	-0.416300	-0.416000	-0.415600	-0.415300	-0.415000	-0.414700	-0.414400	-0.414200	-0.414000	-0.413800	-0.413600	-0.413400	-0.413200	-0.413000	-0.412800	-0.412700	-0.412500	-0.412400	-0.412200	-0.412100	-0.412000	-0.411800	-0.411700	-0.411600	-0.411500	-0.411400	-0.411300	-0.411200
-74.000000	-0.447200	-0.444000	-0.441800	-0.440200	-0.438900	-0.437900	-0.437100	-0.436400	-0.435800	-0.435200	-0.434700	-0.434300	-0.433900	-0.433500	-0.433200	-0.432900	-0.432600	-0.432300	-0.432100	-0.431800	-0.431600	-0.431400	-0.431200	-0.431000	-0.430800	-0.430700	-0.430500	-0.430300	-0.430200	-0.430000	-0.429900	-0.429800	-0.429600	-0.429500	-0.429400	-0.429300	-0.429100	-0.429000	-0.428900
-73.000000	-0.465200	-0.461800	-0.459500	-0.457900	-0.456600	-0.455500	-0.454700	-0.453900	-0.453300	-0.452700	-0.452200	-0.451800	-0.451400	-0.451000	-0.450700	-0.450300	-0.450000	-0.449800	-0.449500	-0.449200	-0.449000	-0.448800	-0.448600	-0.448400	-0.448200	-0.448000	-0.447900	-0.447700	-0.447500	-0.447400	-0.447200	-0.447100	-0.447000	-0.446800	-0.446700	-0.446600	-0.446500	-0.446400	-0.446200
-72.000000	-0.482600	-0.479100	-0.476800	-0.475000	-0.473700	-0.472700	-0.471800	-0.471000	-0.470400	-0.469800	-0.469300	-0.468800	-0.468400	-0.468000	-0.467600	-0.467300	-0.467000	-0.466700	-0.466400	-0.466200	-0.465900	-0.465700	-0.465500	-0.465300	-0.465100	-0.464900	-0.464700	-0.464600	-0.464400	-0.464200	-0.464100	-0.464000	-0.463800	-0.463700	-0.463600	-0.463400	-0.463300	-0.463200	-0.463100
-71.000000	-0.499500	-0.495900	-0.493500	-0.491700	-0.490400	-0.489300	-0.488400	-0.487600	-0.486900	-0.486300	-0.485800	-0.485300	-0.484900	-0.484500	-0.484100	-0.483800	-0.483500	-0.483200	-0.482900	-0.482600	-0.482400	-0.482100	-0.481900	-0.481700	-0.481500	-0.481300	-0.481100	-0.481000	-0.480800	-0.480600	-0.480500	-0.480300	-0.480200	-0.480100	-0.479900	-0.479800	-0.479700	-0.479500	-0.479400
-70.000000	-0.515800	-0.512200	-0.509700	-0.507900	-0.506500	-0.505400	-0.504400	-0.503600	-0.503000	-0.502400	-0.501800	-0.501300	-0.500900	-0.500500	-0.500100	-0.499700	-0.499400	-0.499100	-0.498800	-0.498500	-0.498300	-0.498100	-0.497800	-0.497600	-0.497400	-0.497200	-0.497000	-0.496800	-0.496700	-0.496500	-0.496400	-0.496200	-0.496100	-0.495900	-0.495800	-0.495700	-0.495500	-0.495400	-0.495300
-69.000000	-0.531600	-0.527900	-0.525400	-0.523500	-0.522100	-0.520900	-0.520000	-0.519200	-0.518500	-0.517800	-0.517300	-0.516800	-0.516300	-0.515900	-0.515500	-0.515200	-0.514800	-0.514500	-0.514200	-0.514000	-0.513700	-0.513500	-0.513200	-0.513000	-0.512800	-0.512600	-0.512400	-0.512200	-0.512000	-0.511900	-0.511700	-0.511600	-0.511400	-0.511300	-0.511100	-0.511000	-0.510900	-0.510700	-0.510600
-68.000000	-0.546900	-0.543100	-0.540500	-0.538600	-0.537100	-0.536000	-0.535000	-0.534200	-0.533400	-0.532800	-0.532200	-0.531700	-0.531300	-0.530800	-0.530400	-0.530100	-0.529700	-0.529400	-0.529100	-0.528800	-0.528600	-0.528300	-0.528100	-0.527900	-0.527600	-0.527400	-0.527200	-0.527100	-0.526900	-0.526700	-0.526500	-0.526400	-0.526200	-0.526100	-0.525900	-0.525800	-0.525700	-0.525500	-0.525400
-67.000000	-0.561500	-0.557600	-0.555000	-0.553100	-0.551600	-0.550400	-0.549400	-0.548600	-0.547800	-0.547200	-0.546600	-0.546100	-0.545600	-0.545200	-0.544800	-0.544400	-0.544100	-0.543700	-0.543400	-0.543100	-0.542900	-0.542600	-0.542400	-0.542200	-0.541900	-0.541700	-0.541500	-0.541300	-0.541200	-0.541000	-0.540800	-0.540700	-0.540500	-0.540400	-0.540200	-0.540100	-0.539900	-0.539800	-0.539700
-66.000000	-0.575600	-0.571600	-0.569000	-0.567000	-0.565500	-0.564300	-0.563300	-0.562400	-0.561700	-0.561000	-0.560400	-0.559900	-0.559400	-0.559000	-0.558600	-0.558200	-0.557800	-0.557500	-0.557200	-0.556900	-0.556600	-0.556400	-0.556100	-0.555900	-0.555700	-0.555500	-0.555300	-0.555100	-0.554900	-0.554700	-0.554500	-0.554400	-0.554200	-0.554100	-0.553900	-0.553800	-0.553600	-0.553500	-0.553400
-65.000000	-0.589000	-0.585000	-0.582300	-0.580300	-0.578800	-0.577600	-0.576500	-0.575700	-0.574900	-0.574200	-0.573600	-0.573100	-0.572600	-0.572200	-0.571800	-0.571400	-0.571000	-0.570700	-0.570400	-0.570100	-0.569800	-0.569500	-0.569300	-0.569100	-0.568800	-0.568600	-0.568400	-0.568200	-0.568000	-0.567800	-0.567700	-0.567500	-0.567300	-0.567200	-0.567000	-0.566900	-0.566800	-0.566600	-0.566500
-64.000000	-0.601800	-0.597800	-0.595000	-0.593000	-0.591500	-0.590200	-0.589200	-0.588300	-0.587600	-0.586900	-0.586300	-0.585700	-0.585200	-0.584800	-0.584400	-0.584000	-0.583600	-0.583300	-0.583000	-0.582700	-0.582400	-0.582100	-0.581900	-0.581600	-0.581400	-0.581200	-0.581000	-0.580800	-0.580600	-0.580400	-0.580200	-0.580100	-0.579900	-0.579700	-0.579600	-0.579400	-0.579300	-0.579200	-0.579000
-63.000000	-0.614000	-0.609900	-0.607200	-0.605100	-0.603600	-0.602300	-0.601300	-0.600400	-0.599600	-0.598900	-0.598300	-0.597700	-0.597200	-0.596800	-0.596400	-0.596000	-0.595600	-0.595300	-0.594900	-0.594600	-0.594400	-0.594100	-0.593800	-0.593600	-0.593400	-0.593200	-0.592900	-0.592700	-0.592500	-0.592400	-0.592200	-0.592000	-0.591800	-0.591700	-0.591500	-0.591400	-0.591200	-0.591100	-0.591000
-62.000000	-0.625600	-0.621400	-0.618600	-0.616600	-0.615000	-0.613700	-0.612700	-0.611800	-0.611000	-0.610300	-0.609700	-0.609100	-0.608600	-0.608200	-0.607700	-0.607300	-0.607000	-0.606600	-0.606300	-0.606000	-0.605700	-0.605500	-0.605200	-0.605000	-0.604700	-0.604500	-0.604300	-0.604100	-0.603900	-0.603700	-0.603500	-0.603400	-0.603200	-0.603000	-0.602900	-0.602700	-0.602600	-0.602400	-0.602300
-61.000000	-0.636400	-0.632300	-0.629500	-0.627400	-0.625800	-0.624500	-0.623500	-0.622600	-0.621800	-0.621100	-0.620400	-0.619900	-0.619400	-0.618900	-0.618500	-0.618100	-0.617700	-0.617400	-0.617000	-0.616700	-0.616500	-0.616200	-0.615900	-0.615700	-0.615500	-0.615200	-0.615000	-0.614800	-0.614600	-0.614400	-0.614200	-0.614100	-0.613900	-0.613700	-0.613600	-0.613400	-0.613300	-0.613200	-0.613000
-60.000000	-0.646600	-0.642400	-0.639600	-0.637500	-0.635900	-0.634700	-0.633600	-0.632700	-0.631900	-0.631200	-0.630600	-0.630000	-0.629500	-0.629000	-0.628600	-0.628200	-0.627800	-0.627500	-0.627100	-0.626800	-0.626500	-0.626300	-0.626000	-0.625800	-0.625500	-0.625300	-0.625100	-0.624900	-0.624700	-0.624500	-0.624300	-0.624200	-0.624000	-0.623800	-0.623700	-0.623500	-0.623400	-0.623200	-0.623100
-59.000000	-0.656200	-0.652000	-0.649100	-0.647000	-0.645400	-0.644100	-0.643100	-0.642100	-0.641400	-0.640700	-0.640000	-0.639500	-0.639000	-0.638500	-0.638000	-0.637600	-0.637300	-0.636900	-0.636600	-0.636300	-0.636000	-0.635700	-0.635500	-0.635200	-0.635000	-0.634800	-0.634500	-0.634300	-0.634100	-0.633900	-0.633800	-0.633600	-0.633400	-0.633300	-0.633100	-0.633000	-0.632800	-0.632700	-0.632500
-58.000000	-0.665000	-0.660800	-0.657900	-0.655800	-0.654200	-0.652900	-0.651900	-0.650900	-0.650200	-0.649500	-0.648800	-0.648300	-0.647700	-0.647300	-0.646800	-0.646400	-0.646100	-0.645700	-0.645400	-0.645100	-0.644800	-0.644500	-0.644200	-0.644000	-0.643800	-0.643500	-0.643300	-0.643100	-0.642900	-0.642700	-0.642500	-0.642400	-0.642200	-0.642000	-0.641900	-0.641700	-0.641600	-0.641400	-0.641300
-57.000000	-0.673100	-0.668900	-0.666100	-0.664000	-0.662400	-0.661100	-0.660000	-0.659100	-0.658300	-0.657600	-0.656900	-0.656400	-0.655900	-0.655400	-0.655000	-0.654600	-0.654200	-0.653800	-0.653500	-0.653200	-0.652900	-0.652600	-0.652400	-0.652100	-0.651900	-0.651700	-0.651400	-0.651200	-0.651000	-0.650800	-0.650700	-0.650500	-0.650300	-0.650200	-0.650000	-0.649800	-0.649700	-0.649600	-0.649400
-56.000000	-0.680500	-0.676300	-0.673500	-0.671400	-0.669800	-0.668500	-0.667400	-0.666500	-0.665700	-0.665000	-0.664400	-0.663800	-0.663300	-0.662800	-0.662400	-0.662000	-0.661600	-0.661300	-0.660900	-0.660600	-0.660300	-0.660100	-0.659800	-0.659600	-0.659300	-0.659100	-0.658900	-0.658700	-0.658500	-0.658300	-0.658100	-0.657900	-0.657800	-0.657600	-0.657400	-0.657300	-0.657100	-0.657000	-0.656900
-55.000000	-0.687200	-0.683000	-0.680200	-0.678100	-0.676500	-0.675200	-0.674200	-0.673200	-0.672500	-0.671700	-0.671100	-0.670600	-0.670000	-0.669600	-0.669100	-0.668700	-0.668400	-0.668000	-0.667700	-0.667400	-0.667100	-0.666800	-0.666600	-0.666300	-0.666100	-0.665900	-0.665600	-0.665400	-0.665200	-0.665000	-0.664900	-0.664700	-0.664500	-0.664400	-0.664200	-0.664000	-0.663900	-0.663800	-0.663600
-54.000000	-0.693200	-0.689000	-0.686200	-0.684100	-0.682500	-0.681200	-0.680200	-0.679300	-0.678500	-0.677800	-0.677200	-0.676600	-0.676100	-0.675600	-0.675200	-0.674800	-0.674400	-0.674100	-0.673700	-0.673400	-0.673100	-0.672900	-0.672600	-0.672400	-0.672100	-0.671900	-0.671700	-0.671500	-0.671300	-0.671100	-0.670900	-0.670700	-0.670600	-0.670400	-0.670300	-0.670100	-0.670000	-0.669800	-0.669700
-53.000000	-0.698500	-0.694300	-0.691500	-0.689400	-0.687800	-0.686600	-0.685500	-0.684600	-0.683800	-0.683100	-0.682500	-0.681900	-0.681400	-0.681000	-0.680500	-0.680100	-0.679800	-0.679400	-0.679100	-0.678800	-0.678500	-0.678200	-0.678000	-0.677700	-0.677500	-0.677300	-0.677100	-0.676800	-0.676700	-0.676500	-0.676300	-0.676100	-0.675900	-0.675800	-0.675600	-0.675500	-0.675300	-0.675200	-0.675100
-52.000000	-0.703000	-0.698800	-0.696000	-0.694000	-0.692400	-0.691100	-0.690100	-0.689200	-0.688400	-0.687700	-0.687100	-0.686500	-0.686000	-0.685600	-0.685200	-0.684800	-0.684400	-0.684000	-0.683700	-0.683400	-0.683100	-0.682900	-0.682600	-0.682400	-0.682100	-0.681900	-0.681700	-0.681500	-0.681300	-0.681100	-0.680900	-0.680800	-0.680600	-0.680400	-0.680300	-0.680100	-0.680000	-0.679900	-0.679700
-51.000000	-0.706700	-0.702600	-0.699900	-0.697800	-0.696300	-0.695000	-0.694000	-0.693100	-0.692300	-0.691600	-0.691000	-0.690400	-0.690000	-0.689500	-0.689100	-0.688700	-0.688300	-0.688000	-0.687600	-0.687300	-0.687100	-0.686800	-0.686500	-0.686300	-0.686100	-0.685900	-0.685700	-0.685400	-0.685300	-0.685100	-0.684900	-0.684700	-0.684600	-0.684400	-0.684200	-0.684100	-0.684000	-0.683800	-0.683700
-50.000000	-0.709800	-0.705700	-0.703000	-0.700900	-0.699400	-0.698100	-0.697100	-0.696200	-0.695500	-0.694800	-0.694200	-0.693600	-0.693100	-0.692700	-0.692300	-0.691900	-0.691500	-0.691200	-0.690800	-0.690600	-0.690300	-0.690000	-0.689800	-0.689500	-0.689300	-0.689100	-0.688900	-0.688700	-0.688500	-0.688300	-0.688100	-0.687900	-0.687800	-0.687600	-0.687500	-0.687300	-0.687200	-0.687100	-0.686900
-49.000000	-0.712000	-0.708000	-0.705300	-0.703300	-0.701800	-0.700500	-0.699500	-0.698600	-0.697900	-0.697200	-0.696600	-0.696100	-0.695600	-0.695100	-0.694700	-0.694300	-0.694000	-0.693600	-0.693300	-0.693000	-0.692800	-0.692500	-0.692200	-0.692000	-0.691800	-0.691600	-0.691400	-0.691200	-0.691000	-0.690800	-0.690600	-0.690500	-0.690300	-0.690100	-0.690000	-0.689800	-0.689700	-0.689600	-0.689400
-48.000000	-0.713500	-0.709600	-0.706900	-0.704900	-0.703400	-0.702200	-0.701200	-0.700300	-0.699600	-0.698900	-0.698300	-0.697800	-0.697300	-0.696800	-0.696400	-0.696100	-0.695700	-0.695400	-0.695100	-0.694800	-0.694500	-0.694200	-0.694000	-0.693800	-0.693500	-0.693300	-0.693100	-0.692900	-0.692700	-0.692600	-0.692400	-0.692200	-0.692100	-0.691900	-0.691800	-0.691600	-0.691500	-0.691400	-0.691200
-47.000000	-0.714300	-0.710400	-0.707700	-0.705800	-0.704300	-0.703100	-0.702100	-0.701200	-0.700500	-0.699800	-0.699300	-0.698700	-0.698300	-0.697800	-0.697400	-0.697000	-0.696700	-0.696400	-0.696100	-0.695800	-0.695500	-0.695300	-0.695000	-0.694800	-0.694600	-0.694400	-0.694200	-0.694000	-0.693800	-0.693600	-0.693400	-0.693300	-0.693100	-0.693000	-0.692800	-0.692700	-0.692500	-0.692400	-0.692300
-46.000000	-0.714300	-0.710400	-0.707800	-0.705900	-0.704400	-0.703200	-0.702300	-0.701400	-0.700700	-0.700100	-0.699500	-0.699000	-0.698500	-0.698100	-0.697700	-0.697300	-0.697000	-0.696600	-0.696300	-0.696100	-0.695800	-0.695500	-0.695300	-0.695100	-0.694900	-0.694700	-0.694500	-0.694300	-0.694100	-0.693900	-0.693700	-0.693600	-0.693400	-0.693300	-0.693100	-0.693000	-0.692900	-0.692700	-0.692600
-45.000000	-0.713500	-0.709700	-0.707200	-0.705300	-0.703800	-0.702700	-0.701700	-0.700900	-0.700200	-0.699500	-0.699000	-0.698400	-0.698000	-0.697600	-0.697200	-0.696800	-0.696500	-0.696200	-0.695900	-0.695600	-0.695300	-0.695100	-0.694800	-0.694600	-0.694400	-0.694200	-0.694000	-0.693800	-0.693700	-0.693500	-0.693300	-0.693200	-0.693000	-0.692900	-0.692700	-0.692600	-0.692500	-0.692300	-0.692200
-44.000000	-0.712000	-0.708300	-0.705700	-0.703900	-0.702500	-0.701300	-0.700400	-0.699600	-0.698900	-0.698200	-0.697700	-0.697200	-0.696700	-0.696300	-0.695900	-0.695600	-0.695200	-0.694900	-0.694600	-0.694400	-0.694100	-0.693900	-0.693600	-0.693400	-0.693200	-0.693000	-0.692800	-0.692700	-0.692500	-0.692300	-0.692200	-0.692000	-0.691800	-0.691700	-0.691600	-0.691400	-0.691300	-0.691200	-0.691100
-43.000000	-0.709700	-0.706000	-0.703600	-0.701800	-0.700400	-0.699200	-0.698300	-0.697500	-0.696800	-0.696200	-0.695700	-0.695200	-0.694700	-0.694300	-0.694000	-0.693600	-0.693300	-0.693000	-0.692700	-0.692400	-0.692200	-0.691900	-0.691700	-0.691500	-0.691300	-0.691100	-0.690900	-0.690700	-0.690600	-0.690400	-0.690200	-0.690100	-0.689900	-0.689800	-0.689700	-0.689500	-0.689400	-0.689300	-0.689200
-42.000000	-0.706600	-0.703100	-0.700700	-0.698900	-0.697500	-0.696400	-0.695500	-0.694700	-0.694100	-0.693500	-0.692900	-0.692400	-0.692000	-0.691600	-0.691200	-0.690900	-0.690600	-0.690300	-0.690000	-0.689700	-0.689500	-0.689300	-0.689000	-0.688800	-0.688600	-0.688400	-0.688200	-0.688100	-0.687900	-0.687800	-0.687600	-0.687500	-0.687300	-0.687200	-0.687000	-0.686900	-0.686800	-0.686700	-0.686600
-41.000000	-0.702800	-0.699400	-0.697000	-0.695300	-0.693900	-0.692800	-0.692000	-0.691200	-0.690500	-0.689900	-0.689400	-0.688900	-0.688500	-0.688100	-0.687800	-0.687400	-0.687100	-0.686800	-0.686600	-0.686300	-0.686100	-0.685800	-0.685600	-0.685400	-0.685200	-0.685000	-0.684900	-0.684700	-0.684500	-0.684400	-0.684200	-0.684100	-0.683900	-0.683800	-0.683700	-0.683600	-0.683400	-0.683300	-0.683200
-40.000000	-0.698300	-0.694900	-0.692600	-0.690900	-0.689600	-0.688500	-0.687700	-0.686900	-0.686300	-0.685700	-0.685200	-0.684700	-0.684300	-0.683900	-0.683600	-0.683200	-0.682900	-0.682700	-0.682400	-0.682100	-0.681900	-0.681700	-0.681500	-0.681300	-0.681100	-0.680900	-0.680700	-0.680600	-0.680400	-0.680300	-0.680100	-0.680000	-0.679800	-0.679700	-0.679600	-0.679500	-0.679300	-0.679200	-0.679100
-39.000000	-0.693000	-0.689700	-0.687400	-0.685800	-0.684500	-0.683500	-0.682600	-0.681900	-0.681300	-0.680700	-0.680200	-0.679800	-0.679400	-0.679000	-0.678600	-0.678300	-0.678000	-0.677800	-0.677500	-0.677200	-0.677000	-0.676800	-0.676600	-0.676400	-0.676200	-0.676000	-0.675900	-0.675700	-0.675600	-0.675400	-0.675300	-0.675100	-0.675000	-0.674900	-0.674800	-0.674600	-0.674500	-0.674400	-0.674300
-38.000000	-0.686900	-0.683800	-0.681600	-0.680000	-0.678700	-0.677700	-0.676900	-0.676200	-0.675600	-0.675000	-0.674500	-0.674100	-0.673700	-0.673300	-0.673000	-0.672700	-0.672400	-0.672100	-0.671900	-0.671600	-0.671400	-0.671200	-0.671000	-0.670800	-0.670600	-0.670400	-0.670300	-0.670200	-0.670000	-0.669900	-0.669700	-0.669600	-0.669500	-0.669300	-0.669200	-0.669100	-0.669000	-0.668900	-0.668800
-37.000000	-0.680200	-0.677100	-0.675000	-0.673400	-0.672200	-0.671200	-0.670400	-0.669700	-0.669100	-0.668600	-0.668100	-0.667700	-0.667300	-0.667000	-0.666600	-0.666300	-0.666000	-0.665800	-0.665500	-0.665300	-0.665100	-0.664900	-0.664700	-0.664500	-0.664300	-0.664200	-0.664000	-0.663900	-0.663800	-0.663600	-0.663500	-0.663300	-0.663200	-0.663100	-0.663000	-0.662900	-0.662800	-0.662600	-0.662500
-36.000000	-0.672700	-0.669800	-0.667700	-0.666100	-0.665000	-0.664000	-0.663200	-0.662600	-0.662000	-0.661500	-0.661000	-0.660600	-0.660200	-0.659900	-0.659600	-0.659300	-0.659000	-0.658700	-0.658500	-0.658300	-0.658100	-0.657900	-0.657700	-0.657500	-0.657300	-0.657100	-0.657000	-0.656900	-0.656800	-0.656600	-0.656500	-0.656400	-0.656300	-0.656100	-0.656000	-0.655900	-0.655800	-0.655700	-0.655600
-35.000000	-0.664500	-0.661700	-0.659700	-0.658200	-0.657100	-0.656100	-0.655400	-0.654700	-0.654200	-0.653700	-0.653200	-0.652800	-0.652400	-0.652100	-0.651800	-0.651500	-0.651200	-0.651000	-0.650800	-0.650500	-0.650300	-0.650100	-0.650000	-0.649800	-0.649600	-0.649500	-0.649300	-0.649300	-0.649100	-0.649000	-0.648900	-0.648700	-0.648600	-0.648500	-0.648400	-0.648300	-0.648200	-0.648100	-0.648000
-34.000000	-0.655600	-0.653000	-0.651000	-0.649600	-0.648500	-0.647600	-0.646800	-0.646200	-0.645700	-0.645200	-0.644700	-0.644300	-0.644000	-0.643700	-0.643400	-0.643100	-0.642800	-0.642600	-0.642400	-0.642200	-0.642000	-0.641800	-0.641600	-0.641400	-0.641300	-0.641100	-0.641000	-0.640900	-0.640800	-0.640700	-0.640600	-0.640400	-0.640300	-0.640200	-0.640100	-0.640000	-0.639900	-0.639800	-0.639700
-33.000000	-0.646100	-0.643600	-0.641700	-0.640300	-0.639200	-0.638400	-0.637600	-0.637000	-0.636500	-0.636000	-0.635600	-0.635200	-0.634900	-0.634600	-0.634300	-0.634000	-0.633800	-0.633500	-0.633300	-0.633100	-0.632900	-0.632700	-0.632600	-0.632400	-0.632200	-0.632100	-0.631900	-0.632000	-0.631900	-0.631700	-0.631600	-0.631500	-0.631400	-0.631300	-0.631200	-0.631100	-0.631000	-0.630900	-0.630800
-32.000000	-0.635900	-0.633600	-0.631800	-0.630400	-0.629400	-0.628500	-0.627800	-0.627200	-0.626700	-0.626300	-0.625900	-0.625500	-0.625200	-0.624900	-0.624600	-0.624300	-0.624100	-0.623900	-0.623600	-0.623400	-0.623300	-0.623100	-0.622900	-0.622700	-0.622600	-0.622500	-0.622300	-0.622400	-0.622300	-0.622200	-0.622000	-0.621900	-0.621800	-0.621700	-0.621600	-0.621500	-0.621400	-0.621300	-0.621200
-31.000000	-0.625100	-0.623000	-0.621200	-0.619900	-0.618900	-0.618100	-0.617400	-0.616900	-0.616400	-0.615900	-0.615500	-0.615200	-0.614900	-0.614600	-0.614300	-0.614000	-0.613800	-0.613600	-0.613400	-0.613200	-0.613000	-0.612800	-0.612700	-0.612500	-0.612400	-0.612200	-0.612100	-0.612300	-0.612100	-0.612000	-0.611900	-0.611800	-0.611700	-0.611600	-0.611500	-0.611400	-0.611300	-0.611200	-0.611100
-30.000000	-0.613800	-0.611900	-0.610200	-0.608900	-0.607900	-0.607100	-0.606500	-0.605900	-0.605500	-0.605000	-0.604600	-0.604300	-0.604000	-0.603700	-0.603400	-0.603200	-0.603000	-0.602800	-0.602600	-0.602400	-0.602200	-0.602000	-0.601900	-0.601700	-0.601600	-0.601500	-0.601300	-0.601600	-0.601500	-0.601400	-0.601200	-0.601100	-0.601000	-0.600900	-0.600800	-0.600800	-0.600700	-0.600600	-0.600500
-29.000000	-0.601900	-0.600300	-0.598600	-0.597400	-0.596400	-0.595700	-0.595100	-0.594500	-0.594100	-0.593600	-0.593300	-0.592900	-0.592600	-0.592400	-0.592100	-0.591900	-0.591700	-0.591500	-0.591300	-0.591100	-0.590900	-0.590800	-0.590600	-0.590500	-0.590300	-0.590200	-0.590100	-0.590500	-0.590300	-0.590200	-0.590100	-0.590000	-0.589900	-0.589800	-0.589700	-0.589600	-0.589600	-0.589500	-0.589400
-28.000000	-0.589500	-0.588300	-0.586700	-0.585500	-0.584600	-0.583800	-0.583200	-0.582700	-0.582200	-0.581800	-0.581500	-0.581200	-0.580900	-0.580600	-0.580400	-0.580100	-0.579900	-0.579700	-0.579600	-0.579400	-0.579200	-0.579100	-0.578900	-0.578800	-0.578600	-0.578500	-0.578400	-0.578900	-0.578800	-0.578700	-0.578600	-0.578500	-0.578400	-0.578300	-0.578200	-0.578200	-0.578100	-0.578000	-0.577900
-27.000000	-0.576800	-0.576000	-0.574400	-0.573200	-0.572400	-0.571600	-0.571100	-0.570600	-0.570100	-0.569700	-0.569400	-0.569100	-0.568800	-0.568500	-0.568300	-0.568100	-0.567900	-0.567700	-0.567500	-0.567300	-0.567200	-0.567000	-0.566900	-0.566800	-0.566600	-0.566500	-0.566400	-0.567100	-0.567000	-0.566900	-0.566800	-0.566700	-0.566600	-0.566600	-0.566500	-0.566400	-0.566300	-0.566200	-0.566200
-26.000000	-0.563700	-0.563500	-0.562000	-0.560800	-0.560000	-0.559300	-0.558700	-0.558200	-0.557800	-0.557400	-0.557100	-0.556800	-0.556500	-0.556300	-0.556000	-0.555800	-0.555600	-0.555500	-0.555300	-0.555100	-0.555000	-0.554800	-0.554700	-0.554600	-0.554400	-0.554300	-0.554200	-0.555200	-0.555100	-0.555000	-0.554900	-0.554800	-0.554700	-0.554700	-0.554600	-0.554500	-0.554400	-0.554300	-0.554300
-25.000000	-0.550500	-0.551000	-0.549500	-0.548400	-0.547600	-0.546900	-0.546400	-0.545900	-0.545500	-0.545100	-0.544800	-0.544500	-0.544200	-0.544000	-0.543800	-0.543600	-0.543400	-0.543200	-0.543000	-0.542900	-0.542700	-0.542600	-0.542400	-0.542300	-0.542200	-0.542100	-0.542000	-0.543400	-0.543300	-0.543200	-0.543100	-0.543000	-0.542900	-0.542800	-0.542800	-0.542700	-0.542600	-0.542500	-0.542500
-24.000000	-0.537300	-0.538800	-0.537300	-0.536300	-0.535400	-0.534800	-0.534200	-0.533800	-0.533400	-0.533000	-0.532700	-0.532400	-0.532200	-0.531900	-0.531700	-0.531500	-0.531300	-0.531100	-0.531000	-0.530800	-0.530700	-0.530600	-0.530400	-0.530300	-0.530200	-0.530100	-0.530000	-0.531900	-0.531800	-0.531700	-0.531600	-0.531500	-0.531500	-0.531400	-0.531300	-0.531200	-0.531200	-0.531100	-0.531000
-23.000000	-0.524400	-0.527200	-0.525800	-0.524700	-0.523900	-0.523200	-0.522700	-0.522200	-0.521800	-0.521500	-0.521200	-0.520900	-0.520700	-0.520400	-0.520200	-0.520000	-0.519800	-0.519700	-0.519500	-0.519400	-0.519200	-0.519100	-0.519000	-0.518800	-0.518700	-0.518600	-0.518500	-0.521200	-0.521100	-0.521000	-0.521000	-0.520900	-0.520800	-0.520700	-0.520600	-0.520600	-0.520500	-0.520400	-0.520300
-22.000000	-0.512100	-0.516800	-0.515300	-0.514200	-0.513400	-0.512800	-0.512200	-0.511800	-0.511400	-0.511000	-0.510700	-0.510500	-0.510200	-0.510000	-0.509800	-0.509600	-0.509400	-0.509200	-0.509100	-0.508900	-0.508800	-0.508700	-0.508500	-0.508400	-0.508300	-0.508200	-0.508100	-0.511900	-0.511800	-0.511700	-0.511700	-0.511600	-0.511500	-0.511400	-0.511300	-0.511300	-0.511200	-0.511100	-0.511100
-21.000000	-0.500900	-0.508300	-0.506700	-0.505700	-0.504800	-0.504200	-0.503600	-0.503200	-0.502800	-0.502400	-0.502100	-0.501800	-0.501600	-0.501300	-0.501100	-0.500900	-0.500700	-0.500600	-0.500400	-0.500300	-0.500100	-0.500000	-0.499900	-0.499800	-0.499600	-0.499500	-0.499400	-0.504900	-0.504800	-0.504700	-0.504700	-0.504600	-0.504500	-0.504400	-0.504300	-0.504300	-0.504200	-0.504100	-0.504000
-20.000000	-0.491500	-0.502800	-0.501200	-0.500100	-0.499200	-0.498500	-0.497900	-0.497500	-0.497000	-0.496700	-0.496400	-0.496100	-0.495800	-0.495600	-0.495400	-0.495200	-0.495000	-0.494800	-0.494600	-0.494500	-0.494300	-0.494200	-0.494100	-0.494000	-0.493900	-0.493700	-0.493600	-0.501600	-0.501500	-0.501400	-0.501400	-0.501300	-0.501200	-0.501100	-0.501000	-0.500900	-0.500900	-0.500800	-0.500700
-19.000000	-0.485000	-0.502300	-0.500500	-0.499200	-0.498300	-0.497600	-0.496900	-0.496400	-0.496000	-0.495600	-0.495300	-0.494900	-0.494700	-0.494400	-0.494200	-0.494000	-0.493800	-0.493600	-0.493400	-0.493300	-0.493100	-0.493000	-0.492800	-0.492700	-0.492600	-0.492500	-0.492400	-0.504300	-0.504100	-0.504000	-0.503900	-0.503800	-0.503700	-0.503700	-0.503600	-0.503500	-0.503400	-0.503300	-0.503300
-18.000000	-0.483000	-0.509400	-0.507300	-0.505900	-0.504800	-0.504000	-0.503300	-0.502700	-0.502200	-0.501800	-0.501400	-0.501100	-0.500800	-0.500500	-0.500200	-0.500000	-0.499800	-0.499600	-0.499400	-0.499200	-0.499100	-0.498900	-0.498800	-0.498600	-0.498500	-0.498400	-0.498300	-0.516200	-0.516100	-0.516000	-0.515900	-0.515800	-0.515700	-0.515600	-0.515500	-0.515400	-0.515300	-0.515200	-0.515100
-17.000000	-0.487900	-0.528500	-0.526000	-0.524300	-0.523000	-0.522000	-0.521200	-0.520500	-0.519900	-0.519400	-0.519000	-0.518600	-0.518300	-0.517900	-0.517600	-0.517400	-0.517100	-0.516900	-0.516700	-0.516500	-0.516300	-0.516100	-0.516000	-0.515800	-0.515700	-0.515600	-0.515400	-0.543000	-0.542900	-0.542700	-0.542600	-0.542500	-0.542400	-0.542300	-0.542100	-0.542000	-0.541900	-0.541800	-0.541700
-16.000000	-0.503300	-0.566000	-0.562800	-0.560700	-0.559100	-0.557900	-0.556900	-0.556100	-0.555400	-0.554800	-0.554300	-0.553800	-0.553400	-0.553000	-0.552600	-0.552300	-0.552000	-0.551800	-0.551500	-0.551300	-0.551100	-0.550800	-0.550700	-0.550500	-0.550300	-0.550100	-0.550000	-0.592700	-0.592500	-0.592400	-0.592200	-0.592000	-0.591900	-0.591800	-0.591600	-0.591500	-0.591400	-0.591300	-0.591100
-15.000000	-0.534500	-0.630200	-0.626200	-0.623500	-0.621600	-0.620100	-0.618800	-0.617800	-0.616900	-0.616200	-0.615600	-0.615000	-0.614400	-0.613900	-0.613500	-0.613100	-0.612800	-0.612500	-0.612200	-0.611900	-0.611600	-0.611400	-0.611200	-0.610900	-0.610700	-0.610600	-0.610400	-0.675100	-0.674900	-0.674700	-0.674500	-0.674300	-0.674200	-0.674000	-0.673800	-0.673700	-0.673500	-0.673400	-0.673300
-14.000000	-0.587700	-0.727200	-0.722600	-0.719500	-0.717200	-0.715400	-0.714000	-0.712800	-0.711700	-0.710900	-0.710200	-0.709500	-0.708900	-0.708300	-0.707800	-0.707400	-0.707000	-0.706600	-0.706300	-0.706000	-0.705700	-0.705400	-0.705100	-0.704900	-0.704700	-0.704500	-0.704200	-0.795400	-0.795200	-0.794900	-0.794700	-0.794500	-0.794300	-0.794100	-0.794000	-0.793800	-0.793700	-0.793500	-0.793400
-13.000000	-0.666800	-0.848900	-0.844600	-0.841700	-0.839600	-0.838000	-0.836600	-0.835500	-0.834400	-0.833700	-0.833100	-0.832400	-0.831800	-0.831300	-0.830800	-0.830400	-0.830000	-0.829700	-0.829400	-0.829100	-0.828800	-0.828600	-0.828300	-0.828100	-0.827900	-0.827700	-0.827500	-0.935200	-0.935100	-0.934900	-0.934700	-0.934600	-0.934400	-0.934300	-0.934100	-0.934000	-0.933900	-0.933800	-0.933700
-12.000000	-0.763900	-0.955800	-0.953800	-0.952400	-0.951400	-0.950600	-0.949900	-0.949400	-0.948800	-0.948500	-0.948200	-0.947800	-0.947500	-0.947300	-0.947000	-0.946800	-0.946700	-0.946500	-0.946400	-0.946200	-0.946100	-0.945900	-0.945800	-0.945700	-0.945600	-0.945500	-0.945400	-1.038500	-1.038500	-1.038400	-1.038400	-1.038400	-1.038300	-1.038300	-1.038300	-1.038300	-1.038200	-1.038200	-1.038200
-11.000000	-0.847100	-0.992900	-0.994300	-0.995100	-0.995800	-0.996300	-0.996600	-0.996900	-0.997200	-0.997400	-0.997600	-0.997800	-0.998000	-0.998100	-0.998200	-0.998300	-0.998500	-0.998500	-0.998600	-0.998700	-0.998800	-0.998900	-0.998900	-0.999000	-0.999100	-0.999100	-0.999200	-1.050500	-1.050600	-1.050700	-1.050800	-1.050900	-1.051000	-1.051100	-1.051200	-1.051200	-1.051300	-1.051400	-1.051500
-10.000000	-0.818300	-0.847000	-0.855100	-0.867100	-0.879700	-0.867900	-0.884400	-0.898400	-0.909700	-0.918400	-0.925100	-0.930400	-0.934500	-0.937900	-0.940700	-0.942900	-0.944800	-0.946400	-0.947600	-0.948500	-0.948800	-0.948800	-0.948800	-0.948800	-0.948800	-0.948700	-0.948500	-0.948300	-0.947900	-0.979300	-0.947000	-0.979600	-0.979700	-0.979900	-0.980000	-0.980100	-0.950000	-0.980400	-0.980500
-9.500000	-0.794350	-0.815100	-0.818600	-0.829600	-0.841300	-0.852400	-0.842000	-0.853500	-0.862600	-0.869700	-0.875200	-0.879700	-0.883300	-0.886300	-0.888800	-0.891000	-0.892900	-0.894500	-0.895900	-0.897200	-0.898300	-0.899300	-0.900200	-0.901000	-0.901800	-0.902400	-0.903000	-0.903500	-0.904000	-0.901300	-0.901000	-0.900600	-0.905600	-0.905900	-0.900300	-0.906400	-0.901750	-0.917050	-0.903500
-9.000000	-0.770400	-0.775500	-0.775600	-0.787100	-0.797500	-0.806800	-0.814700	-0.820600	-0.819350	-0.816900	-0.821900	-0.826100	-0.829600	-0.832600	-0.835100	-0.837300	-0.839200	-0.840900	-0.842400	-0.843600	-0.844800	-0.845800	-0.846700	-0.847500	-0.848200	-0.848900	-0.849500	-0.850000	-0.850500	-0.851000	-0.851400	-0.851800	-0.852200	-0.852500	-0.852900	-0.853200	-0.853500	-0.853700	-0.854000
-8.500000	-0.727900	-0.731900	-0.740700	-0.740600	-0.751800	-0.760400	-0.766900	-0.772100	-0.776100	-0.778800	-0.780300	-0.780800	-0.780300	-0.778500	-0.783950	-0.783200	-0.785100	-0.786700	-0.788200	-0.789400	-0.790500	-0.791500	-0.792400	-0.793200	-0.793900	-0.794500	-0.795100	-0.795600	-0.796100	-0.796600	-0.797000	-0.797300	-0.797700	-0.798000	-0.798300	-0.798600	-0.798900	-0.799100	-0.799400
-8.000000	-0.682100	-0.686500	-0.697000	-0.702200	-0.704400	-0.713000	-0.718700	-0.722800	-0.726000	-0.728500	-0.730200	-0.731400	-0.732200	-0.732700	-0.732800	-0.732800	-0.732300	-0.732600	-0.733900	-0.735100	-0.736100	-0.737000	-0.737800	-0.738600	-0.739200	-0.739800	-0.740300	-0.740800	-0.741300	-0.741700	-0.742000	-0.742400	-0.742700	-0.743000	-0.743200	-0.743500	-0.743700	-0.743900	-0.744200
-7.500000	-0.635100	-0.640000	-0.652100	-0.659900	-0.657500	-0.664100	-0.669300	-0.672700	-0.675100	-0.676900	-0.678300	-0.679400	-0.680200	-0.680800	-0.681200	-0.681500	-0.681800	-0.681900	-0.682000	-0.681900	-0.681700	-0.682500	-0.683200	-0.683800	-0.684400	-0.684900	-0.685300	-0.685800	-0.686100	-0.686500	-0.686800	-0.687100	-0.687300	-0.687600	-0.687800	-0.688000	-0.688200	-0.688400	-0.688500
-7.000000	-0.591500	-0.601400	-0.606200	-0.612600	-0.615600	-0.613800	-0.618200	-0.621000	-0.622900	-0.624300	-0.625400	-0.626200	-0.626900	-0.627400	-0.627800	-0.628100	-0.628400	-0.628600	-0.628800	-0.628900	-0.629100	-0.629100	-0.629200	-0.629200	-0.629300	-0.629700	-0.630100	-0.630400	-0.630700	-0.631000	-0.631200	-0.631400	-0.631600	-0.631800	-0.632000	-0.632200	-0.632300	-0.632500	-0.632600
-6.500000	-0.547500	-0.554800	-0.559500	-0.562900	-0.565800	-0.567400	-0.568000	-0.567800	-0.569300	-0.570500	-0.571300	-0.572000	-0.572600	-0.573000	-0.573400	-0.573700	-0.574000	-0.574200	-0.574400	-0.574600	-0.574800	-0.574900	-0.575000	-0.575100	-0.575000	-0.575000	-0.575100	-0.575100	-0.575100	-0.575200	-0.575300	-0.575500	-0.575600	-0.575800	-0.575900	-0.576000	-0.576100	-0.576200	-0.576300
-6.000000	-0.504700	-0.508800	-0.510400	-0.512900	-0.513500	-0.514300	-0.515300	-0.516100	-0.516600	-0.516900	-0.517200	-0.517400	-0.517500	-0.517700	-0.517800	-0.518000	-0.518200	-0.518400	-0.518600	-0.518800	-0.519000	-0.519100	-0.519300	-0.519400	-0.519500	-0.519600	-0.519700	-0.519800	-0.519800	-0.519900	-0.520000	-0.520000	-0.520100	-0.520200	-0.520200	-0.520300	-0.520300	-0.520300	-0.520400
-5.500000	-0.457800	-0.460800	-0.461200	-0.460200	-0.461300	-0.461250	-0.461600	-0.461700	-0.461800	-0.461800	-0.462000	-0.462200	-0.462400	-0.462500	-0.462600	-0.462700	-0.462700	-0.462800	-0.462800	-0.462800	-0.462800	-0.462900	-0.462900	-0.462900	-0.463000	-0.463000	-0.463000	-0.463000	-0.463200	-0.463100	-0.463200	-0.463250	-0.463300	-0.463350	-0.463300	-0.463400	-0.463400	-0.463400	-0.463500
-5.000000	-0.404000	-0.406000	-0.407000	-0.407500	-0.407900	-0.408200	-0.408400	-0.408400	-0.407900	-0.407700	-0.407300	-0.407300	-0.407100	-0.407000	-0.406900	-0.406900	-0.406800	-0.406800	-0.406700	-0.406700	-0.406600	-0.406600	-0.406600	-0.406600	-0.406600	-0.406600	-0.406600	-0.406600	-0.406600	-0.406600	-0.406500	-0.406500	-0.406500	-0.406500	-0.406500	-0.406500	-0.406400	-0.406400	-0.406400
-4.500000	-0.349800	-0.350900	-0.351400	-0.351600	-0.351700	-0.351800	-0.351800	-0.351800	-0.351900	-0.351800	-0.351800	-0.351800	-0.351800	-0.351700	-0.351700	-0.351500	-0.351300	-0.351100	-0.351000	-0.350900	-0.350800	-0.350600	-0.350400	-0.350400	-0.350300	-0.350200	-0.350100	-0.350000	-0.349900	-0.349800	-0.349800	-0.349700	-0.349700	-0.349600	-0.349600	-0.349500	-0.349500	-0.349400	-0.349400
-4.000000	-0.295200	-0.295600	-0.295600	-0.295500	-0.295400	-0.295300	-0.295100	-0.295000	-0.294900	-0.294800	-0.294700	-0.294600	-0.294500	-0.294400	-0.294400	-0.294300	-0.294200	-0.294100	-0.294000	-0.294000	-0.293900	-0.293800	-0.293800	-0.293700	-0.293700	-0.293600	-0.293600	-0.293500	-0.293400	-0.293300	-0.293200	-0.293000	-0.292900	-0.292800	-0.292800	-0.292700	-0.292600	-0.292600	-0.292500
-3.500000	-0.240300	-0.240000	-0.239600	-0.239200	-0.238900	-0.238600	-0.238300	-0.238100	-0.237900	-0.237700	-0.237500	-0.237400	-0.237200	-0.237100	-0.236900	-0.236800	-0.236700	-0.236600	-0.236500	-0.236300	-0.236200	-0.236200	-0.236100	-0.236000	-0.235900	-0.235800	-0.235700	-0.235600	-0.235600	-0.235500	-0.235400	-0.235400	-0.235300	-0.235200	-0.235200	-0.235100	-0.235100	-0.235000	-0.235000
-3.000000	-0.185300	-0.184300	-0.183500	-0.182800	-0.182300	-0.181800	-0.181400	-0.181100	-0.180800	-0.180500	-0.180200	-0.180000	-0.179800	-0.179600	-0.179400	-0.179300	-0.179100	-0.178900	-0.178800	-0.178700	-0.178500	-0.178400	-0.178300	-0.178200	-0.178100	-0.178000	-0.177900	-0.177800	-0.177700	-0.177600	-0.177500	-0.177400	-0.177300	-0.177200	-0.177200	-0.177100	-0.177000	-0.177000	-0.176900
-2.500000	-0.130100	-0.128500	-0.127300	-0.126300	-0.125600	-0.125000	-0.124500	-0.124000	-0.123600	-0.123200	-0.122900	-0.122600	-0.122400	-0.122100	-0.121900	-0.121700	-0.121500	-0.121300	-0.121100	-0.120900	-0.120800	-0.120600	-0.120500	-0.120300	-0.120200	-0.120100	-0.119900	-0.119800	-0.119700	-0.119600	-0.119500	-0.119400	-0.119300	-0.119200	-0.119100	-0.119000	-0.118900	-0.118900	-0.118800
-2.000000	-0.074700	-0.072600	-0.071000	-0.069800	-0.068900	-0.068100	-0.067400	-0.066900	-0.066400	-0.065900	-0.065600	-0.065200	-0.064900	-0.064600	-0.064300	-0.064000	-0.063800	-0.063600	-0.063400	-0.063200	-0.063000	-0.062800	-0.062600	-0.062400	-0.062300	-0.062100	-0.062000	-0.061900	-0.061700	-0.061600	-0.061500	-0.061400	-0.061300	-0.061100	-0.061000	-0.060900	-0.060800	-0.060700	-0.060600
-1.500000	-0.019300	-0.016600	-0.014700	-0.013200	-0.012100	-0.011200	-0.010400	-0.009700	-0.009100	-0.008600	-0.008200	-0.007800	-0.007400	-0.007000	-0.006700	-0.006400	-0.006100	-0.005900	-0.005600	-0.005400	-0.005200	-0.005000	-0.004800	-0.004600	-0.004400	-0.004200	-0.004100	-0.003900	-0.003700	-0.003600	-0.003500	-0.003300	-0.003200	-0.003100	-0.003000	-0.002800	-0.002700	-0.002600	-0.002500
-1.000000	0.036100	0.039400	0.041700	0.043400	0.044700	0.045800	0.046700	0.047400	0.048100	0.048700	0.049200	0.049700	0.050100	0.050500	0.050900	0.051200	0.051500	0.051800	0.052100	0.052400	0.052600	0.052900	0.053100	0.053300	0.053500	0.053700	0.053900	0.054100	0.054200	0.054400	0.054600	0.054700	0.054900	0.055000	0.055100	0.055300	0.055400	0.055500	0.055600
-0.500000	0.091500	0.095300	0.098000	0.100000	0.101500	0.102700	0.103700	0.104600	0.105300	0.106000	0.106600	0.107100	0.107600	0.108100	0.108500	0.108900	0.109200	0.109500	0.109900	0.110200	0.110400	0.110700	0.110900	0.111200	0.111400	0.111600	0.111800	0.112000	0.112200	0.112400	0.112600	0.112700	0.112900	0.113100	0.113200	0.113400	0.113500	0.113600	0.113800
0.000000	0.146900	0.151300	0.154300	0.156500	0.158200	0.159600	0.160700	0.161700	0.162500	0.163300	0.163900	0.164500	0.165100	0.165600	0.166000	0.166400	0.166800	0.167200	0.167600	0.167900	0.168200	0.168500	0.168800	0.169000	0.169300	0.169500	0.169700	0.170000	0.170200	0.170400	0.170500	0.170700	0.170900	0.171100	0.171200	0.171400	0.171600	0.171700	0.171900
0.500000	0.202200	0.207100	0.210500	0.213000	0.214900	0.216400	0.217700	0.218700	0.219700	0.220500	0.221200	0.221900	0.222500	0.223000	0.223500	0.224000	0.224400	0.224800	0.225200	0.225600	0.225900	0.226200	0.226500	0.226800	0.227100	0.227400	0.227600	0.227800	0.228100	0.228300	0.228500	0.228700	0.228900	0.229100	0.229300	0.229400	0.229600	0.229800	0.229900
1.000000	0.257300	0.262900	0.266700	0.269400	0.271500	0.273100	0.274500	0.275700	0.276700	0.277600	0.278400	0.279200	0.279800	0.280400	0.281000	0.281500	0.282000	0.282400	0.282800	0.283200	0.283600	0.283900	0.284300	0.284600	0.284900	0.285100	0.285400	0.285700	0.285900	0.286200	0.286400	0.286600	0.286800	0.287000	0.287200	0.287400	0.287600	0.287800	0.287900
1.500000	0.312400	0.318500	0.322700	0.325700	0.328000	0.329800	0.331300	0.332600	0.333700	0.334700	0.335600	0.336400	0.337100	0.337700	0.338300	0.338900	0.339400	0.339900	0.340300	0.340800	0.341200	0.341500	0.341900	0.342200	0.342600	0.342900	0.343200	0.343400	0.343700	0.344000	0.344200	0.344400	0.344700	0.344900	0.345100	0.345300	0.345500	0.345700	0.345900
2.000000	0.367200	0.374000	0.378500	0.381800	0.384300	0.386300	0.388000	0.389400	0.390600	0.391700	0.392600	0.393500	0.394300	0.395000	0.395600	0.396200	0.396800	0.397300	0.397800	0.398200	0.398700	0.399100	0.399500	0.399800	0.400200	0.400500	0.400800	0.401100	0.401400	0.401700	0.402000	0.402200	0.402500	0.402700	0.402900	0.403100	0.403400	0.403600	0.403800
2.500000	0.421800	0.429300	0.434200	0.437800	0.440500	0.442700	0.444500	0.446000	0.447400	0.448500	0.449500	0.450500	0.451300	0.452100	0.452800	0.453400	0.454000	0.454600	0.455100	0.455600	0.456100	0.456500	0.456900	0.457300	0.457700	0.458000	0.458400	0.458700	0.459000	0.459300	0.459600	0.459900	0.460100	0.460400	0.460600	0.460900	0.461100	0.461300	0.461500
3.000000	0.476100	0.484300	0.489700	0.493600	0.496500	0.498900	0.500900	0.502500	0.503900	0.505200	0.506300	0.507300	0.508200	0.509100	0.509800	0.510500	0.511200	0.511800	0.512300	0.512900	0.513400	0.513800	0.514300	0.514700	0.515100	0.515500	0.515800	0.516200	0.516500	0.516800	0.517200	0.517400	0.517700	0.518000	0.518300	0.518500	0.518800	0.519000	0.519200
3.500000	0.530100	0.539000	0.544900	0.549200	0.552400	0.554900	0.557000	0.558800	0.560400	0.561700	0.562900	0.564000	0.565000	0.565900	0.566700	0.567500	0.568200	0.568800	0.569400	0.570000	0.570500	0.571000	0.571500	0.571900	0.572400	0.572800	0.573200	0.573600	0.573900	0.574200	0.574600	0.574900	0.575200	0.575500	0.575800	0.576000	0.576300	0.576600	0.576800
4.000000	0.583600	0.593500	0.599900	0.604400	0.607900	0.610700	0.613000	0.614900	0.616600	0.618000	0.619400	0.620500	0.621600	0.622500	0.623400	0.624200	0.625000	0.625700	0.626300	0.626900	0.627500	0.628000	0.628600	0.629000	0.629500	0.629900	0.630400	0.630800	0.631100	0.631500	0.631900	0.632200	0.632500	0.632800	0.633100	0.633400	0.633700	0.634000	0.634200
4.500000	0.636700	0.647400	0.654400	0.659400	0.663200	0.666200	0.668700	0.670800	0.672600	0.674200	0.675600	0.676800	0.677900	0.679000	0.679900	0.680800	0.681600	0.682300	0.683000	0.683700	0.684300	0.684900	0.685500	0.686000	0.686500	0.686900	0.687400	0.687800	0.688200	0.688600	0.689000	0.689400	0.689700	0.690000	0.690400	0.690700	0.691000	0.691300	0.691500
5.000000	0.689200	0.701000	0.708600	0.714000	0.718100	0.721400	0.724100	0.726300	0.728300	0.730000	0.731500	0.732900	0.734100	0.735200	0.736200	0.737200	0.738000	0.738800	0.739600	0.740300	0.740900	0.741600	0.742200	0.742700	0.743200	0.743700	0.744200	0.744600	0.744900	0.745200	0.745500	0.745600	0.745700	0.745800	0.746000	0.746200	0.746500	0.746700	0.747000
5.500000	0.741100	0.754000	0.762300	0.768200	0.772600	0.776200	0.779100	0.781600	0.783700	0.785600	0.787200	0.788700	0.790000	0.791200	0.792300	0.793200	0.793800	0.794400	0.794600	0.794900	0.795400	0.795900	0.796300	0.796600	0.796700	0.797000	0.797400	0.797800	0.798100	0.798400	0.798600	0.798700	0.798900	0.799200	0.799500	0.799800	0.800100	0.800300	0.800500
6.000000	0.792100	0.806300	0.815400	0.821800	0.826700	0.830600	0.833800	0.836500	0.838300	0.839300	0.840100	0.841200	0.841800	0.842600	0.843400	0.844000	0.844500	0.845200	0.845900	0.846500	0.847100	0.847600	0.848000	0.848500	0.849000	0.849600	0.850100	0.850600	0.851100	0.851500	0.852000	0.852400	0.852800	0.853100	0.853500	0.853800	0.854100	0.854400	0.854700
6.500000	0.842200	0.857800	0.867800	0.874900	0.877900	0.880300	0.882300	0.884100	0.885800	0.887700	0.889100	0.890300	0.891700	0.893100	0.894300	0.895500	0.896500	0.897400	0.898200	0.899000	0.899700	0.900400	0.901100	0.901700	0.902300	0.903000	0.903500	0.904100	0.904600	0.905200	0.905800	0.906300	0.906800	0.907300	0.907800	0.908200	0.908700	0.909100	0.909500
7.000000	0.890500	0.903500	0.910800	0.916000	0.922000	0.925600	0.928700	0.932400	0.935400	0.937700	0.939600	0.941200	0.942600	0.943900	0.945200	0.946800	0.948200	0.949500	0.950700	0.951800	0.952800	0.953700	0.954600	0.955400	0.956200	0.956900	0.957600	0.958200	0.958800	0.959300	0.959900	0.960400	0.960800	0.961300	0.961700	0.962100	0.962500	0.962900	0.963200
7.500000	0.920400	0.938700	0.951400	0.956700	0.966400	0.972700	0.977000	0.979400	0.981500	0.985400	0.988700	0.991400	0.993700	0.995800	0.997600	0.999100	1.000500	1.001700	1.002800	1.003800	1.004700	1.005500	1.006300	1.007000	1.007700	1.008400	1.009000	1.009600	1.010100	1.011600	1.012333	1.012000	1.012800	1.014050	1.014100	1.014700	1.015650	1.015900	1.016400
8.000000	0.946300	0.972400	0.983000	1.000400	1.010400	1.015200	1.017900	1.025300	1.030800	1.035100	1.038500	1.041500	1.043900	1.045900	1.047700	1.049300	1.050700	1.051900	1.053100	1.054100	1.055100	1.055900	1.056700	1.057400	1.059100	1.060100	1.061000	1.061850	1.062650	1.063900	1.064767	1.065200	1.066000	1.066800	1.067500	1.068200	1.068800	1.069500	1.070100
8.500000	0.970900	1.002100	1.020100	1.039400	1.046900	1.052300	1.063900	1.071900	1.077900	1.082700	1.086500	1.089600	1.092100	1.094300	1.096100	1.097600	1.098800	1.099800	1.100500	1.102300	1.105400	1.106750	1.107600	1.109100	1.110500	1.111800	1.113000	1.114100	1.115200	1.116200	1.117200	1.118100	1.118900	1.119700	1.120500	1.121200	1.121900	1.122600	1.123200
9.000000	0.996500	1.014000	1.048400	1.069500	1.075900	1.094800	1.107000	1.116000	1.122900	1.128000	1.131900	1.134500	1.135700	1.135700	1.139700	1.143200	1.146300	1.149000	1.151500	1.153700	1.155700	1.157600	1.159300	1.160800	1.162300	1.163700	1.164900	1.166100	1.167200	1.168300	1.169300	1.170200	1.171100	1.171900	1.172700	1.173500	1.174200	1.174900	1.175500
9.500000	1.031500	1.045600	1.073600	1.078700	1.108700	1.131900	1.146700	1.156500	1.159700	1.157200	1.166800	1.174300	1.180300	1.185400	1.189600	1.193200	1.196400	1.199300	1.201800	1.204100	1.206200	1.208000	1.209800	1.211300	1.212800	1.214100	1.215300	1.216400	1.217500	1.218400	1.219200	1.219900	1.217700	1.218000	1.218200	1.218500	1.220075	1.221500	1.222100
10.000000	1.065700	1.074600	1.084700	1.109500	1.135500	1.158200	1.168600	1.154700	1.178500	1.197700	1.209500	1.218300	1.225200	1.230800	1.235500	1.239400	1.242800	1.245600	1.248100	1.250200	1.252100	1.253500	1.254700	1.255800	1.256700	1.257500	1.258200	1.258900	1.259500	1.260100	1.260500	1.260900	1.261200	1.261300	1.261300	1.261500	1.265950	1.268100	1.268700
10.500000	1.121100	1.102100	1.110800	1.132500	1.157200	1.174600	1.158200	1.186500	1.209200	1.228100	1.244000	1.256400	1.264700	1.271300	1.276600	1.281000	1.284500	1.287400	1.289700	1.291700	1.293300	1.294800	1.296000	1.297100	1.298000	1.298800	1.299400	1.299800	1.299900	1.299800	1.299400	1.298700	1.303850	1.305600	1.307500	1.310200	1.311825	1.314700	1.315300
11.000000	1.144300	1.130600	1.138600	1.154400	1.177500	1.175800	1.187700	1.214100	1.235800	1.253500	1.268100	1.280700	1.291900	1.301900	1.310500	1.316800	1.321000	1.324100	1.326700	1.328800	1.330500	1.331900	1.332900	1.333600	1.333900	1.333800	1.333300	1.332200	1.330500	1.334500	1.337650	1.342600	1.346500	1.349900	1.350100	1.355400	1.357700	1.359900	1.361900
11.500000	1.154900	1.160700	1.163200	1.176800	1.192400	1.184700	1.209800	1.234100	1.255000	1.272800	1.288400	1.302400	1.314800	1.325200	1.333700	1.340200	1.345200	1.349100	1.352100	1.354400	1.355900	1.356600	1.356600	1.355700	1.354000	1.351500	1.348200	1.354950	1.361000	1.369200	1.375900	1.375050	1.380250	1.389200	1.392700	1.396000	1.399000	1.401800	1.404300
12.000000	1.148100	1.168700	1.183500	1.196300	1.203400	1.205900	1.229300	1.251900	1.271900	1.290000	1.306500	1.321600	1.335300	1.346600	1.355400	1.361900	1.366500	1.369700	1.371600	1.372500	1.372300	1.371100	1.369000	1.365900	1.362100	1.360100	1.369200	1.377700	1.385800	1.393400	1.400600	1.407500	1.414000	1.420300	1.426700	1.432600	1.437200	1.440800	1.444000
12.500000	1.132100	1.170200	1.198200	1.212700	1.212400	1.224100	1.246600	1.267800	1.287300	1.305400	1.322700	1.339200	1.353900	1.366200	1.375000	1.380800	1.384200	1.385800	1.385900	1.384800	1.382500	1.379300	1.375200	1.370300	1.374300	1.384200	1.393600	1.402500	1.410900	1.418900	1.426600	1.433800	1.440700	1.447100	1.453200	1.458900	1.464300	1.469400	1.474300
13.000000	1.106900	1.162200	1.204800	1.224900	1.213800	1.239000	1.261500	1.281700	1.300900	1.319600	1.337900	1.355500	1.372000	1.383900	1.391600	1.395800	1.397400	1.397100	1.395000	1.391600	1.387000	1.381500	1.388350	1.388100	1.398800	1.409000	1.418800	1.427900	1.436900	1.445200	1.453300	1.460800	1.467900	1.474600	1.481000	1.486900	1.492500	1.497700	1.502600
13.500000	1.070100	1.144300	1.203700	1.230800	1.215200	1.249500	1.273100	1.293600	1.313000	1.332600	1.351800	1.372100	1.388500	1.398900	1.404000	1.405400	1.404400	1.401500	1.396900	1.390900	1.382800	1.389400	1.401500	1.412700	1.424000	1.434400	1.444600	1.454500	1.463500	1.472400	1.480400	1.488200	1.495600	1.502300	1.508900	1.515000	1.520500	1.525800	1.530800
14.000000	1.020300	1.116600	1.194100	1.226200	1.217200	1.255900	1.281400	1.302600	1.323000	1.344300	1.366100	1.387500	1.401500	1.408000	1.409600	1.407900	1.403800	1.397800	1.389200	1.386700	1.399800	1.412900	1.425800	1.437500	1.449500	1.460500	1.470800	1.481100	1.490400	1.499300	1.508000	1.515800	1.523200	1.530300	1.536600	1.542500	1.548300	1.553700	1.558500
14.500000	0.950700	1.077700	1.177800	1.204800	1.214700	1.257100	1.285900	1.309000	1.331000	1.355100	1.380000	1.399200	1.408700	1.410900	1.408400	1.402800	1.393600	1.379700	1.393900	1.409100	1.422700	1.436600	1.450000	1.462200	1.474700	1.486300	1.497100	1.507900	1.517500	1.526300	1.535100	1.543100	1.550200	1.557200	1.564000	1.569900	1.575400	1.580800	1.585800
15.000000	0.902733	1.025300	1.154300	1.167400	1.207600	1.253700	1.285600	1.312400	1.338400	1.365700	1.390600	1.403700	1.407000	1.403900	1.396100	1.382300	1.381200	1.397600	1.414500	1.430100	1.444900	1.460200	1.473900	1.486700	1.500000	1.511600	1.522600	1.533800	1.543600	1.552600	1.561600	1.569700	1.576700	1.583400	1.590000	1.596200	1.601500	1.606500	1.611400
15.500000	0.854767	0.815800	1.122100	1.123200	1.195200	1.246900	1.282400	1.314300	1.345100	1.374800	1.394700	1.400100	1.396200	1.384500	1.360700	1.381100	1.399000	1.416400	1.434700	1.450500	1.466300	1.482800	1.496800	1.510900	1.524700	1.536200	1.547600	1.559000	1.568400	1.577300	1.586300	1.594500	1.601400	1.608100	1.614700	1.621000	1.626300	1.631200	1.635800
16.000000	0.806800	0.835100	1.070900	1.080100	1.175700	1.234200	1.277500	1.315800	1.351300	1.377900	1.388100	1.383400	1.365600	1.353100	1.375000	1.397300	1.416300	1.435500	1.454100	1.470500	1.488000	1.503900	1.518500	1.534000	1.547200	1.559300	1.571600	1.582300	1.591500	1.600500	1.609600	1.617300	1.624100	1.630500	1.636900	1.643300	1.648800	1.653600	1.658200
16.500000	0.831200	0.831100	1.046650	1.040300	1.148000	1.217900	1.271200	1.316900	1.354300	1.371300	1.367000	1.338200	1.341900	1.366000	1.389900	1.412300	1.432400	1.454400	1.472600	1.490500	1.509000	1.524200	1.540000	1.555000	1.567600	1.580300	1.593000	1.602900	1.612400	1.621800	1.630800	1.637900	1.644500	1.650900	1.657300	1.663700	1.669100	1.673800	1.678300
17.000000	0.838100	0.837000	1.022400	1.002200	1.105000	1.193900	1.261900	1.315700	1.347500	1.346700	1.305500	1.319800	1.352100	1.377600	1.404500	1.426400	1.448800	1.470500	1.489600	1.510900	1.527500	1.543700	1.560700	1.573800	1.586600	1.600300	1.610900	1.620600	1.630100	1.640100	1.648300	1.655400	1.662100	1.668600	1.675200	1.681600	1.686800	1.691400	1.695800
17.500000	0.834500	0.841500	1.000950	0.979750	1.085400	1.159900	1.252100	1.308300	1.321500	1.280300	1.286400	1.324300	1.359600	1.387600	1.416000	1.439300	1.464900	1.485200	1.506700	1.526500	1.543800	1.562800	1.577300	1.590500	1.604700	1.616700	1.626600	1.636200	1.646100	1.655600	1.662800	1.669600	1.676100	1.682600	1.689300	1.695600	1.700600	1.705100	1.709400
18.000000	0.848300	0.855300	0.979500	0.957300	1.065800	1.063900	1.238400	1.286800	1.262300	1.231000	1.284700	1.326700	1.364000	1.394900	1.424900	1.450800	1.476500	1.498200	1.521800	1.539800	1.558900	1.576200	1.590400	1.605000	1.619200	1.629700	1.639500	1.649500	1.660200	1.667800	1.674700	1.681200	1.687400	1.693800	1.700400	1.706000	1.710400	1.714400	1.718200
18.500000	0.866400	0.871800	0.961650	0.936200	1.048200	1.040500	1.216000	1.243800	1.186300	1.220700	1.279900	1.325900	1.365600	1.399200	1.429800	1.461000	1.485000	1.510500	1.531600	1.550500	1.571200	1.586100	1.600700	1.616900	1.628300	1.638800	1.649100	1.660200	1.669100	1.676000	1.682400	1.688500	1.694300	1.700100	1.706100	1.711100	1.714700	1.718100	1.721100
19.000000	0.890500	0.890800	0.943800	0.915100	1.030600	1.017100	1.172500	1.185400	1.128100	1.194600	1.270900	1.321200	1.363700	1.399400	1.431000	1.463900	1.489000	1.517200	1.537400	1.559800	1.577400	1.592500	1.609100	1.622900	1.633700	1.643600	1.653700	1.664400	1.671400	1.677600	1.683200	1.688300	1.692700	1.695900	1.684800	1.690800	1.690400	1.694800	1.697900
19.500000	0.899400	0.899300	0.929700	0.899200	1.015600	0.997800	1.158050	1.127900	1.073500	1.166650	1.248400	1.311100	1.356800	1.393300	1.428300	1.462400	1.488200	1.516900	1.538100	1.562700	1.578900	1.594400	1.612000	1.623100	1.632900	1.641800	1.650400	1.640850	1.647850	1.573900	1.654350	1.604300	1.654000	1.658500	1.659150	1.666150	1.661350	1.666950	1.670050
20.000000	0.911400	0.912600	0.915600	0.883300	1.000600	0.978500	1.143600	1.101300	1.038600	1.138700	1.215300	1.288000	1.339100	1.382100	1.420500	1.456000	1.482700	1.512100	1.533500	1.557900	1.574000	1.588600	1.604600	1.601700	1.580000	1.569200	1.627500	1.617300	1.624300	1.546500	1.625500	1.580200	1.615300	1.621100	1.633500	1.641500	1.632300	1.639100	1.642200
20.500000	0.917200	0.925900	0.905050	0.872050	0.988300	0.963300	1.130350	1.078000	1.009850	1.114550	1.194950	1.255900	1.318200	1.365000	1.406500	1.440100	1.471100	1.501200	1.522000	1.544600	1.558200	1.562300	1.552000	1.542500	1.532700	1.523900	1.602250	1.590350	1.597200	1.512700	1.593050	1.553000	1.584150	1.589850	1.604150	1.613100	1.599650	1.607450	1.610450
21.000000	0.930400	0.938200	0.894500	0.860800	0.976000	0.948100	1.117100	1.054700	0.981100	1.090400	1.174600	1.205800	1.283500	1.334000	1.377500	1.416800	1.451200	1.475700	1.499600	1.512500	1.515600	1.510300	1.503600	1.496600	1.487600	1.477900	1.577000	1.563400	1.570100	1.468900	1.560600	1.513300	1.553000	1.558600	1.574800	1.584700	1.567000	1.575800	1.578700
21.500000	0.945300	0.949300	0.887100	0.853400	0.966400	0.936700	1.105400	1.035900	0.959900	1.070500	1.156900	1.189100	1.226800	1.294300	1.341700	1.380900	1.414600	1.443200	1.459100	1.466600	1.465500	1.460700	1.454700	1.448000	1.438500	1.429100	1.550150	1.535100	1.541650	1.415400	1.527200	1.465300	1.521000	1.526350	1.544150	1.554700	1.533350	1.542950	1.545750
22.000000	0.961800	0.963800	0.879700	0.846000	0.956800	0.925300	1.093700	1.017100	0.938700	1.050600	1.139200	1.172400	1.211400	1.240000	1.295700	1.337300	1.370400	1.396900	1.409500	1.414200	1.412900	1.408800	1.403400	1.396200	1.386700	1.378400	1.523300	1.506800	1.513200	1.346400	1.493800	1.407500	1.489000	1.494100	1.513500	1.524700	1.499700	1.510100	1.512800
22.500000	0.982400	0.978900	0.875000	0.841800	0.949650	0.917200	1.083750	1.002450	0.923850	1.034700	1.124000	1.157750	1.197300	1.247850	1.233600	1.284600	1.319800	1.341000	1.355600	1.359300	1.358500	1.355000	1.348900	1.340600	1.333800	1.326600	1.496450	1.478900	1.485000	1.300950	1.461500	1.331300	1.458000	1.462850	1.483400	1.495100	1.467050	1.478100	1.480650
23.000000	0.994800	0.994900	0.870300	0.837600	0.942500	0.909100	1.073800	0.987800	0.909000	1.018800	1.108800	1.143100	1.183200	1.255700	1.210400	1.262200	1.262000	1.280600	1.293400	1.300800	1.299900	1.294000	1.289500	1.284500	1.278900	1.272400	1.469600	1.451000	1.456800	1.255500	1.429200	1.228000	1.427000	1.431600	1.453300	1.465500	1.434400	1.446100	1.448500
23.500000	1.006400	1.007900	0.867850	0.835900	0.937550	0.903850	1.065600	0.976900	0.899150	1.006600	1.096150	1.130550	1.170750	1.244000	1.189800	1.241750	1.259500	1.212700	1.225700	1.230700	1.232200	1.231400	1.229100	1.225500	1.220800	1.214300	1.443950	1.424550	1.430050	1.218200	1.399300	1.193100	1.398200	1.402600	1.425000	1.437450	1.404250	1.416250	1.418550
24.000000	1.015300	1.020700	0.865400	0.834200	0.932600	0.898600	1.057400	0.966000	0.889300	0.994400	1.083500	1.118000	1.158300	1.232300	1.169200	1.221300	1.257000	1.187900	1.197000	1.200300	1.200600	1.198600	1.194900	1.190500	1.212200	1.203800	1.418300	1.398100	1.403300	1.180900	1.369400	1.158200	1.369400	1.373600	1.396700	1.409400	1.374100	1.386400	1.388600
24.500000	1.028100	1.033600	0.864750	0.834500	0.929500	0.895600	1.050800	0.958200	0.883400	0.985350	1.073250	1.107550	1.147650	1.221800	1.152000	1.203700	1.239100	1.166450	1.172350	1.174300	1.173650	1.170750	1.166050	1.161000	1.184900	1.175950	1.394550	1.373950	1.378850	1.151450	1.342700	1.130800	1.343600	1.347550	1.371000	1.383800	1.347100	1.359550	1.361600
25.000000	1.041500	1.046200	0.864100	0.834800	0.926400	0.892600	1.044200	0.950400	0.877500	0.976300	1.063000	1.097100	1.137000	1.211300	1.134800	1.186100	1.221200	1.145000	1.147700	1.148300	1.146700	1.142900	1.137200	1.131500	1.157600	1.148100	1.370800	1.349800	1.354400	1.122000	1.316000	1.103400	1.317800	1.321500	1.345300	1.358200	1.320100	1.332700	1.334600
25.500000	1.011550	1.010550	0.864950	0.836600	0.924900	0.891550	1.039150	0.945300	0.874700	0.970000	1.054950	1.088650	1.128100	1.202050	1.120750	1.171300	1.205850	1.127650	1.128000	1.127600	1.125400	1.121050	1.114700	1.108700	1.135950	1.126200	1.349400	1.328250	1.332600	1.099450	1.292750	1.082550	1.295300	1.298700	1.322550	1.335450	1.296600	1.309200	1.311000
26.000000	0.981600	0.974900	0.865800	0.838400	0.923400	0.890500	1.034100	0.940200	0.871900	0.963700	1.046900	1.080200	1.119200	1.192800	1.106700	1.156500	1.190500	1.110300	1.108300	1.106900	1.104100	1.099200	1.092200	1.085900	1.114300	1.104300	1.328000	1.306700	1.310800	1.076900	1.269500	1.061700	1.272800	1.275900	1.299800	1.312700	1.273100	1.285700	1.287400
26.500000	0.982700	0.973850	0.867800	0.841450	0.923200	0.890900	1.030400	0.937200	0.871350	0.959650	1.040800	1.073550	1.111950	1.184850	1.095550	1.144300	1.177550	1.096700	1.092950	1.090900	1.087700	1.082500	1.075200	1.068750	1.097500	1.087500	1.309200	1.287950	1.291750	1.060050	1.249750	1.046350	1.253550	1.256450	1.280150	1.292900	1.253100	1.265550	1.267150
27.000000	0.983800	0.972800	0.869800	0.844500	0.923000	0.891300	1.026700	0.934200	0.870800	0.955600	1.034700	1.066900	1.104700	1.176900	1.084400	1.132100	1.164600	1.083100	1.077600	1.074900	1.071300	1.065800	1.058200	1.051600	1.080700	1.070700	1.290400	1.269200	1.272700	1.043200	1.230000	1.031000	1.234300	1.237000	1.260500	1.273100	1.233100	1.245400	1.246900
27.500000	0.985300	0.972700	0.872700	0.848400	0.923900	0.892950	1.024200	0.933000	0.872000	0.953400	1.030300	1.061800	1.098900	1.170100	1.075700	1.122200	1.153950	1.072600	1.066000	1.062850	1.059000	1.053350	1.045650	1.039100	1.068050	1.058150	1.274100	1.253100	1.256400	1.031100	1.213450	1.020000	1.218150	1.220700	1.243800	1.256200	1.216400	1.228500	1.229850
28.000000	0.986800	0.972600	0.875600	0.852300	0.924800	0.894600	1.021700	0.931800	0.873200	0.951200	1.025900	1.056700	1.093100	1.163300	1.067000	1.112300	1.143300	1.062100	1.054400	1.050800	1.046700	1.040900	1.033100	1.026600	1.055400	1.045600	1.257800	1.237000	1.240100	1.019000	1.196900	1.009000	1.202000	1.204400	1.227100	1.239300	1.199700	1.211600	1.212800
28.500000	0.988700	0.973200	0.879200	0.856800	0.926550	0.897100	1.020250	0.931900	0.875700	0.950450	1.022950	1.053000	1.088600	1.157650	1.060500	1.104500	1.134650	1.054300	1.045850	1.042000	1.037800	1.031950	1.024200	1.017800	1.046100	1.036550	1.243900	1.223450	1.226350	1.010550	1.183350	1.001500	1.188700	1.190900	1.213150	1.225050	1.185950	1.197600	1.198750
29.000000	0.990600	0.973800	0.882800	0.861300	0.928300	0.899600	1.018800	0.932000	0.878200	0.949700	1.020000	1.049300	1.084100	1.152000	1.054000	1.096700	1.126000	1.046500	1.037300	1.033200	1.028900	1.023000	1.015300	1.009000	1.036800	1.027500	1.230000	1.209900	1.212600	1.002100	1.169800	0.994000	1.175400	1.177400	1.199200	1.210800	1.172200	1.183600	1.184700
29.500000	0.992800	0.975050	0.886950	0.866300	0.930700	0.902850	1.018150	0.933200	0.881600	0.950100	1.018200	1.046800	1.080750	1.147350	1.049300	1.090700	1.119150	1.040950	1.031250	1.027000	1.022700	1.016850	1.009300	1.003150	1.030250	1.021200	1.218300	1.198600	1.201100	0.996650	1.158850	0.989250	1.164550	1.166400	1.187700	1.199000	1.161100	1.172200	1.173200
30.000000	0.995000	0.976300	0.891100	0.871300	0.933100	0.906100	1.017500	0.934400	0.885000	0.950500	1.016400	1.044300	1.077400	1.142700	1.044600	1.084700	1.112300	1.035400	1.025200	1.020800	1.016500	1.010700	1.003300	0.997300	1.023700	1.014900	1.206600	1.187300	1.189600	0.991200	1.147900	0.984500	1.153700	1.155400	1.176200	1.187200	1.150000	1.160800	1.161700
31.000000	0.999800	0.979800	0.900000	0.881900	0.939000	0.913600	1.017700	0.938500	0.893200	0.953200	1.014800	1.041200	1.072700	1.135300	1.038100	1.075700	1.101600	1.027800	1.017200	1.012700	1.008400	1.002900	0.995800	0.990200	1.015000	1.006800	1.187100	1.168700	1.170700	0.984700	1.130400	0.979300	1.136400	1.137800	1.157500	1.167800	1.132300	1.142400	1.143200
32.000000	1.005000	0.984000	0.909400	0.892800	0.945600	0.921700	1.019100	0.943800	0.902300	0.957300	1.014800	1.039800	1.069600	1.129500	1.034100	1.069200	1.093500	1.023100	1.012400	1.007900	1.003800	0.998500	0.991800	0.986600	1.009800	1.002100	1.171100	1.153600	1.155400	0.981700	1.116700	0.977300	1.122700	1.124000	1.142400	1.152200	1.118400	1.127900	1.128600
33.000000	1.010300	0.988800	0.919100	0.903800	0.952700	0.930400	1.021300	0.950000	0.912000	0.962400	1.016100	1.039600	1.067800	1.125000	1.032100	1.064900	1.087500	1.020700	1.010100	1.005700	1.001700	0.996800	0.990500	0.985700	1.007300	1.000200	1.158000	1.141500	1.143000	0.981400	1.106100	0.977700	1.112100	1.113200	1.130500	1.139700	1.107700	1.116600	1.117200
34.000000	1.015800	0.994000	0.928800	0.914800	0.960200	0.939200	1.024300	0.956800	0.921900	0.968200	1.018300	1.040500	1.067200	1.121600	1.031600	1.062200	1.083300	1.020100	1.009700	1.005500	1.001700	0.997100	0.991300	0.986800	1.006900	1.000300	1.147500	1.131900	1.133200	0.983100	1.098200	0.980000	1.104100	1.105000	1.121300	1.129800	1.099700	1.108000	1.108500
35.000000	1.021300	0.999300	0.938400	0.925600	0.967700	0.948100	1.027700	0.963900	0.931900	0.974500	1.021300	1.042200	1.067400	1.119100	1.032300	1.060800	1.080600	1.020900	1.010900	1.006800	1.003300	0.998900	0.993500	0.989400	1.008000	1.001900	1.139000	1.124400	1.125600	0.986100	1.092400	0.983600	1.098100	1.098900	1.114100	1.122100	1.093800	1.101500	1.102000
36.000000	1.026600	1.004800	0.947800	0.936100	0.975200	0.956900	1.031400	0.971200	0.941700	0.981000	1.024700	1.044400	1.068200	1.117400	1.033900	1.060400	1.078900	1.022700	1.013000	1.009200	1.005800	1.001800	0.996800	0.993100	1.010200	1.004600	1.132300	1.118600	1.119600	0.990200	1.088300	0.988100	1.093800	1.094500	1.108700	1.116200	1.089600	1.096800	1.097200
37.000000	1.031800	1.010200	0.956900	0.946100	0.982600	0.965500	1.035300	0.978500	0.951300	0.987500	1.028400	1.047000	1.069500	1.116200	1.036000	1.060800	1.078100	1.025200	1.015900	1.012300	1.009200	1.005400	1.000800	0.997400	1.013300	1.008100	1.127000	1.114100	1.115000	0.994800	1.085500	0.993100	1.090800	1.091400	1.104700	1.111700	1.086700	1.093500	1.093800
38.000000	1.036600	1.015400	0.965500	0.955600	0.989700	0.973700	1.039100	0.985500	0.960500	0.994000	1.032200	1.049800	1.071000	1.115400	1.038600	1.061700	1.077900	1.028100	1.019300	1.015800	1.013000	1.009500	1.005200	1.002000	1.016800	1.012000	1.122700	1.110600	1.111500	0.999800	1.083700	0.998400	1.088800	1.089300	1.101700	1.108200	1.084800	1.091100	1.091500
39.000000	1.041100	1.020400	0.973600	0.964600	0.996400	0.981500	1.042900	0.992300	0.969200	1.000200	1.036000	1.052600	1.072700	1.114800	1.041300	1.063000	1.078100	1.031300	1.022900	1.019600	1.017000	1.013700	1.009800	1.006900	1.020500	1.016200	1.119300	1.108000	1.108700	1.005000	1.082600	1.003800	1.087400	1.087900	1.099500	1.105600	1.083700	1.089600	1.089900
40.000000	1.045200	1.025000	0.981100	0.972800	1.002700	0.988700	1.046400	0.998600	0.977300	1.006100	1.039700	1.055300	1.074300	1.114300	1.044100	1.064300	1.078500	1.034400	1.026500	1.023500	1.021000	1.018000	1.014300	1.011700	1.024300	1.020300	1.116500	1.105900	1.106500	1.010000	1.081900	1.009000	1.086600	1.087000	1.097900	1.103600	1.083000	1.088500	1.088800
41.000000	1.048800	1.029100	0.988000	0.980400	1.008400	0.995300	1.049600	1.004500	0.984700	1.011500	1.043000	1.057800	1.075800	1.113800	1.046700	1.065700	1.079000	1.037500	1.030000	1.027100	1.024800	1.022100	1.018700	1.016200	1.028000	1.024300	1.114100	1.104100	1.104700	1.014800	1.081600	1.014000	1.086000	1.086400	1.096600	1.101900	1.082600	1.087800	1.088000
42.000000	1.051800	1.032800	0.994100	0.987100	1.013400	1.001200	1.052400	1.009700	0.991400	1.016300	1.046000	1.059900	1.077000	1.113100	1.049100	1.066900	1.079400	1.040300	1.033200	1.030500	1.028400	1.025800	1.022700	1.020400	1.031400	1.027900	1.111900	1.102500	1.103100	1.019300	1.081300	1.018600	1.085500	1.085900	1.095400	1.100400	1.082300	1.087100	1.087400
43.000000	1.054200	1.035800	0.999500	0.993100	1.017800	1.006300	1.054600	1.014300	0.997300	1.020600	1.048500	1.061700	1.077800	1.112200	1.051000	1.067800	1.079500	1.042700	1.036000	1.033500	1.031500	1.029100	1.026300	1.024200	1.034400	1.031200	1.109800	1.100900	1.101400	1.023200	1.080900	1.022600	1.085000	1.085300	1.094200	1.098900	1.081900	1.086400	1.086700
44.000000	1.056000	1.038200	1.004000	0.998100	1.021500	1.010700	1.056300	1.018200	1.002400	1.024100	1.050400	1.062900	1.078200	1.111000	1.052600	1.068300	1.079400	1.044700	1.038400	1.036000	1.034200	1.031900	1.029300	1.027400	1.036900	1.033900	1.107500	1.099200	1.099700	1.026600	1.080300	1.026100	1.084200	1.084500	1.092900	1.097300	1.081400	1.085600	1.085800
45.000000	1.057000	1.039800	1.007700	1.002300	1.024400	1.014300	1.057400	1.021300	1.006500	1.026900	1.051700	1.063600	1.078100	1.109300	1.053600	1.068400	1.078800	1.046100	1.040100	1.037900	1.036200	1.034100	1.031700	1.029900	1.038800	1.036000	1.105000	1.097200	1.097700	1.029300	1.079400	1.028900	1.083100	1.083400	1.091300	1.095500	1.080400	1.084400	1.084600
46.000000	1.057300	1.040800	1.010500	1.005600	1.026400	1.017000	1.057800	1.023600	1.009800	1.028900	1.052300	1.063600	1.077500	1.107200	1.053900	1.067900	1.077700	1.046800	1.041200	1.039100	1.037500	1.035600	1.033300	1.031700	1.040000	1.037500	1.102300	1.094900	1.095300	1.031200	1.078100	1.030900	1.081600	1.081900	1.089400	1.093300	1.079100	1.082900	1.083000
47.000000	1.056900	1.040900	1.012400	1.007900	1.027600	1.018700	1.057400	1.025000	1.012100	1.030100	1.052200	1.063000	1.076100	1.104400	1.053600	1.066700	1.076100	1.046900	1.041500	1.039600	1.038100	1.036400	1.034200	1.032700	1.040500	1.038200	1.099000	1.092100	1.092500	1.032400	1.076300	1.032200	1.079600	1.079900	1.086900	1.090600	1.077300	1.080800	1.081000
48.000000	1.055600	1.040200	1.013300	1.009200	1.027900	1.019600	1.056200	1.025500	1.013500	1.030400	1.051300	1.061500	1.074100	1.101100	1.052500	1.064900	1.073800	1.046200	1.041100	1.039300	1.037900	1.036300	1.034300	1.032900	1.040200	1.038000	1.095300	1.088800	1.089200	1.032700	1.073800	1.032500	1.077100	1.077300	1.083900	1.087400	1.074800	1.078100	1.078300
49.000000	1.053400	1.038700	1.013300	1.009500	1.027300	1.019400	1.054300	1.025100	1.013800	1.029800	1.049600	1.059300	1.071300	1.097100	1.050600	1.062400	1.070800	1.044600	1.039900	1.038200	1.036900	1.035400	1.033500	1.032200	1.039100	1.037100	1.091100	1.084900	1.085200	1.032100	1.070700	1.032000	1.073800	1.074100	1.080300	1.083600	1.071700	1.074900	1.075000
50.000000	1.050400	1.036200	1.012200	1.008800	1.025700	1.018300	1.051400	1.023700	1.013200	1.028200	1.047000	1.056300	1.067700	1.092300	1.047900	1.059100	1.067000	1.042300	1.037700	1.036200	1.035000	1.033600	1.031800	1.030600	1.037100	1.035200	1.086100	1.080300	1.080600	1.030600	1.066900	1.030600	1.069900	1.070100	1.076000	1.079100	1.067900	1.070900	1.071000
51.000000	1.046400	1.032800	1.010200	1.007000	1.023100	1.016200	1.047700	1.021300	1.011500	1.025700	1.043500	1.052400	1.063200	1.086800	1.044300	1.054900	1.062400	1.039000	1.034700	1.033200	1.032100	1.030800	1.029200	1.028100	1.034200	1.032400	1.080500	1.075000	1.075300	1.028200	1.062300	1.028200	1.065200	1.065400	1.071000	1.073900	1.063300	1.066100	1.066300
52.000000	1.041600	1.028500	1.007100	1.004200	1.019600	1.013000	1.043000	1.017900	1.008700	1.022100	1.039100	1.047600	1.058000	1.080500	1.039800	1.049900	1.057000	1.034800	1.030700	1.029400	1.028300	1.027100	1.025600	1.024600	1.030300	1.028700	1.074100	1.068900	1.069200	1.024700	1.056900	1.024800	1.059600	1.059800	1.065100	1.067900	1.057900	1.060600	1.060700
53.000000	1.035800	1.023200	1.002900	1.000300	1.015000	1.008800	1.037400	1.013600	1.004800	1.017600	1.033800	1.041800	1.051800	1.073300	1.034400	1.043900	1.050700	1.029600	1.025800	1.024500	1.023500	1.022400	1.021000	1.020100	1.025500	1.023900	1.067000	1.062000	1.062300	1.020300	1.050600	1.020300	1.053300	1.053400	1.058500	1.061100	1.051600	1.054100	1.054300
54.000000	1.029000	1.017000	0.997800	0.995400	1.009400	1.003600	1.030900	1.008100	0.999900	1.012000	1.027400	1.035200	1.044600	1.065300	1.028000	1.037100	1.043600	1.023500	1.019900	1.018700	1.017800	1.016700	1.015400	1.014500	1.019700	1.018200	1.059000	1.054300	1.054500	1.014800	1.043500	1.014900	1.046000	1.046200	1.051000	1.053500	1.044500	1.046900	1.047000
55.000000	1.021300	1.009700	0.991500	0.989400	1.002800	0.997300	1.023300	1.001600	0.993900	1.005400	1.020100	1.027500	1.036600	1.056400	1.020700	1.029300	1.035500	1.016400	1.012900	1.011800	1.011000	1.010000	1.008800	1.007900	1.012800	1.011500	1.050100	1.045700	1.045900	1.008300	1.035400	1.008400	1.037800	1.038000	1.042500	1.044900	1.036400	1.038700	1.038800
56.000000	1.012600	1.001500	0.984200	0.982200	0.995100	0.989900	1.014800	0.994100	0.986800	0.997700	1.011800	1.018900	1.027600	1.046500	1.012300	1.020500	1.026400	1.008200	1.005000	1.003900	1.003100	1.002200	1.001100	1.000300	1.004900	1.003700	1.040300	1.036100	1.036400	1.000700	1.026400	1.000800	1.028700	1.028900	1.033200	1.035500	1.027300	1.029500	1.029700
57.000000	1.002800	0.992200	0.975800	0.974000	0.986300	0.981400	1.005300	0.985500	0.978600	0.989000	1.002400	1.009200	1.017600	1.035800	1.002900	1.010800	1.016400	0.999100	0.996000	0.995000	0.994300	0.993400	0.992300	0.991600	0.996000	0.994800	1.029700	1.025700	1.025900	0.992100	1.016400	0.992200	1.018600	1.018800	1.022900	1.025100	1.017400	1.019400	1.019600
58.000000	0.992100	0.981900	0.966300	0.964700	0.976500	0.971900	0.994700	0.975800	0.969300	0.979200	0.992000	0.998600	1.006600	1.024100	0.992500	1.000000	1.005400	0.988900	0.986000	0.985000	0.984300	0.983500	0.982500	0.981900	0.986000	0.984900	1.018100	1.014300	1.014500	0.982400	1.005400	0.982500	1.007600	1.007800	1.011700	1.013800	1.006400	1.008400	1.008500
59.000000	0.980400	0.970600	0.955700	0.954300	0.965600	0.961300	0.983100	0.965100	0.958900	0.968400	0.980600	0.986900	0.994600	1.011400	0.981100	0.988300	0.993400	0.977700	0.974900	0.974000	0.973300	0.972600	0.971700	0.971000	0.975000	0.974000	1.005500	1.001900	1.002100	0.971600	0.993500	0.971700	0.995600	0.995700	0.999500	1.001500	0.994400	0.996300	0.996500
60.000000	0.967700	0.958300	0.944100	0.942800	0.953700	0.949600	0.970500	0.953200	0.947400	0.956500	0.968200	0.974200	0.981600	0.997800	0.968600	0.975500	0.980400	0.965400	0.962700	0.961900	0.961300	0.960600	0.959700	0.959100	0.962900	0.961900	0.992000	0.988600	0.988800	0.959700	0.980500	0.959900	0.982500	0.982700	0.986300	0.988200	0.981500	0.983300	0.983400
61.000000	0.953900	0.944900	0.931400	0.930300	0.940700	0.936800	0.956900	0.940300	0.934800	0.943500	0.954700	0.960500	0.967600	0.983100	0.955100	0.961700	0.966400	0.952000	0.949500	0.948700	0.948200	0.947500	0.946700	0.946200	0.949800	0.948800	0.977500	0.974200	0.974400	0.946700	0.966600	0.946900	0.968500	0.968700	0.972100	0.973900	0.967500	0.969200	0.969400
62.000000	0.939200	0.930500	0.917600	0.916600	0.926700	0.922900	0.942300	0.926400	0.921200	0.929400	0.940200	0.945700	0.952600	0.967500	0.940600	0.946900	0.951400	0.937700	0.935300	0.934500	0.934000	0.933400	0.932600	0.932100	0.935600	0.934700	0.962100	0.958900	0.959100	0.932700	0.951600	0.932900	0.953500	0.953600	0.956900	0.958600	0.952500	0.954200	0.954300
63.000000	0.923400	0.915000	0.902800	0.901900	0.911500	0.908000	0.926600	0.911400	0.906400	0.914300	0.924600	0.930000	0.936600	0.951000	0.925100	0.931100	0.935400	0.922300	0.920000	0.919300	0.918800	0.918200	0.917500	0.917000	0.920300	0.919500	0.945600	0.942600	0.942800	0.917600	0.935600	0.917800	0.937400	0.937600	0.940700	0.942400	0.936500	0.938100	0.938300
64.000000	0.906700	0.898600	0.886900	0.886100	0.895400	0.892000	0.909900	0.895300	0.890600	0.898100	0.908000	0.913200	0.919500	0.933400	0.908500	0.914200	0.918400	0.905800	0.903600	0.903000	0.902500	0.901900	0.901300	0.900800	0.904000	0.903200	0.928200	0.925300	0.925500	0.901500	0.918700	0.901700	0.920400	0.920500	0.923500	0.925100	0.919500	0.921100	0.921200
65.000000	0.889000	0.881100	0.870000	0.869200	0.878200	0.875000	0.892200	0.878100	0.873700	0.880900	0.890400	0.895400	0.901500	0.914900	0.890800	0.896400	0.900400	0.888300	0.886200	0.885600	0.885200	0.884700	0.884000	0.883600	0.886600	0.885900	0.909800	0.907000	0.907200	0.884200	0.900700	0.884500	0.902300	0.902500	0.905300	0.906900	0.901500	0.903000	0.903100
66.000000	0.870200	0.862700	0.852000	0.851300	0.860000	0.856900	0.873400	0.860000	0.855700	0.862700	0.871800	0.876600	0.882500	0.895400	0.872200	0.877500	0.881400	0.869800	0.867800	0.867200	0.866800	0.866300	0.865700	0.865300	0.868200	0.867500	0.890400	0.887800	0.888000	0.866000	0.881700	0.866200	0.883300	0.883400	0.886200	0.887600	0.882500	0.883900	0.884000
67.000000	0.850500	0.843300	0.833000	0.832400	0.840700	0.837800	0.853700	0.840800	0.836700	0.843400	0.852200	0.856800	0.862500	0.874900	0.852600	0.857700	0.861400	0.850300	0.848400	0.847800	0.847400	0.847000	0.846400	0.846000	0.848800	0.848100	0.870100	0.867500	0.867700	0.846700	0.861700	0.846900	0.863200	0.863400	0.866000	0.867400	0.862500	0.863900	0.864000
68.000000	0.829900	0.822800	0.813000	0.812500	0.820500	0.817700	0.833100	0.820600	0.816700	0.823100	0.831600	0.836000	0.841500	0.853500	0.832000	0.836900	0.840400	0.829800	0.827900	0.827400	0.827000	0.826600	0.826100	0.825700	0.828400	0.827700	0.848800	0.846300	0.846500	0.826400	0.840700	0.826600	0.842200	0.842400	0.844900	0.846300	0.841600	0.842900	0.843000
69.000000	0.808300	0.801500	0.792000	0.791600	0.799300	0.796600	0.811400	0.799400	0.795700	0.801800	0.810000	0.814300	0.819600	0.831200	0.810400	0.815100	0.818500	0.808300	0.806500	0.806000	0.805700	0.805300	0.804700	0.804400	0.806900	0.806300	0.826500	0.824200	0.824400	0.805100	0.818800	0.805300	0.820300	0.820400	0.822800	0.824100	0.819600	0.820900	0.821000
70.000000	0.785800	0.779200	0.770100	0.769700	0.777100	0.774600	0.788800	0.777200	0.773700	0.779600	0.787500	0.791600	0.796700	0.807900	0.787800	0.792400	0.795700	0.785800	0.784100	0.783600	0.783300	0.782900	0.782400	0.782100	0.784600	0.784000	0.803400	0.801100	0.801300	0.782800	0.796000	0.783000	0.797300	0.797500	0.799800	0.801100	0.796800	0.797900	0.798000
71.000000	0.762400	0.755900	0.747200	0.746800	0.754000	0.751600	0.765300	0.754100	0.750700	0.756400	0.764000	0.768000	0.772900	0.783800	0.764300	0.768700	0.771900	0.762400	0.760800	0.760300	0.760000	0.759600	0.759200	0.758900	0.761200	0.760700	0.779300	0.777100	0.777300	0.759500	0.772200	0.759700	0.773500	0.773600	0.775900	0.777100	0.772900	0.774100	0.774200
72.000000	0.738100	0.731800	0.723400	0.723000	0.730000	0.727600	0.740900	0.730100	0.726800	0.732300	0.739600	0.743500	0.748200	0.758700	0.739900	0.744100	0.747200	0.738100	0.736500	0.736100	0.735800	0.735400	0.735000	0.734700	0.736900	0.736400	0.754300	0.752200	0.752400	0.735300	0.747500	0.735500	0.748800	0.748900	0.751000	0.752200	0.748200	0.749300	0.749400
73.000000	0.712900	0.706800	0.698700	0.698300	0.705000	0.702800	0.715600	0.705200	0.702000	0.707300	0.714300	0.718100	0.722700	0.732800	0.714600	0.718700	0.721600	0.712800	0.711300	0.710900	0.710600	0.710300	0.709900	0.709600	0.711700	0.711200	0.728500	0.726500	0.726600	0.710200	0.721900	0.710400	0.723100	0.723200	0.725300	0.726400	0.722600	0.723700	0.723700
74.000000	0.686900	0.680900	0.673100	0.672700	0.679200	0.677000	0.689400	0.679300	0.676300	0.681400	0.688200	0.691800	0.696200	0.706000	0.688400	0.692300	0.695200	0.686700	0.685300	0.684900	0.684600	0.684300	0.683900	0.683600	0.685700	0.685200	0.701800	0.699800	0.700000	0.684200	0.695400	0.684400	0.696600	0.696700	0.698700	0.699800	0.696100	0.697100	0.697200
75.000000	0.660100	0.654200	0.646600	0.646300	0.652500	0.650400	0.662400	0.652700	0.649800	0.654600	0.661200	0.664700	0.669000	0.678400	0.661400	0.665200	0.667900	0.659700	0.658300	0.658000	0.657700	0.657400	0.657000	0.656800	0.658700	0.658300	0.674200	0.672400	0.672500	0.657300	0.668100	0.657500	0.669300	0.669400	0.671300	0.672400	0.668800	0.669800	0.669900
76.000000	0.632400	0.626700	0.619400	0.619100	0.625100	0.623000	0.634500	0.625200	0.622400	0.627100	0.633400	0.636700	0.640900	0.650100	0.633600	0.637200	0.639800	0.631900	0.630600	0.630200	0.630000	0.629700	0.629300	0.629100	0.631000	0.630500	0.645900	0.644100	0.644200	0.629600	0.640000	0.629800	0.641100	0.641200	0.643100	0.644100	0.640600	0.641600	0.641700
77.000000	0.604100	0.598400	0.591300	0.591000	0.596800	0.594800	0.605900	0.596800	0.594200	0.598700	0.604800	0.608000	0.612000	0.620900	0.604900	0.608400	0.611000	0.603400	0.602100	0.601700	0.601500	0.601200	0.600800	0.600600	0.602400	0.602000	0.616800	0.615100	0.615200	0.601100	0.611100	0.601300	0.612200	0.612300	0.614100	0.615000	0.611700	0.612600	0.612700
78.000000	0.575000	0.569400	0.562500	0.562200	0.567800	0.565800	0.576600	0.567800	0.565200	0.569500	0.575400	0.578600	0.582400	0.591000	0.575500	0.578900	0.581400	0.574000	0.572700	0.572400	0.572200	0.571900	0.571500	0.571300	0.573100	0.572700	0.586900	0.585300	0.585400	0.571800	0.581400	0.572000	0.582500	0.582600	0.584300	0.585200	0.582000	0.582900	0.583000
79.000000	0.545100	0.539700	0.532900	0.532600	0.538000	0.536100	0.546500	0.538000	0.535500	0.539700	0.545300	0.548400	0.552100	0.560400	0.545400	0.548700	0.551100	0.543900	0.542700	0.542400	0.542100	0.541900	0.541500	0.541300	0.543000	0.542600	0.556400	0.554800	0.554900	0.541800	0.551100	0.542000	0.552100	0.552100	0.553800	0.554700	0.551600	0.552500	0.552500
80.000000	0.514700	0.509300	0.502700	0.502400	0.507500	0.505700	0.515800	0.507500	0.505000	0.509100	0.514600	0.517500	0.521100	0.529200	0.514600	0.517800	0.520000	0.513100	0.512000	0.511600	0.511400	0.511100	0.510800	0.510600	0.512200	0.511900	0.525100	0.523600	0.523700	0.511100	0.520000	0.511200	0.520900	0.521000	0.522600	0.523500	0.520500	0.521300	0.521400
81.000000	0.483500	0.478200	0.471800	0.471400	0.476400	0.474600	0.484400	0.476300	0.474000	0.477800	0.483100	0.486000	0.489500	0.497300	0.483100	0.486200	0.488400	0.481700	0.480600	0.480200	0.480000	0.479800	0.479400	0.479200	0.480800	0.480400	0.493300	0.491800	0.491800	0.479700	0.488200	0.479800	0.489200	0.489300	0.490800	0.491600	0.488700	0.489500	0.489600
82.000000	0.451800	0.446500	0.440300	0.439900	0.444700	0.442900	0.452300	0.444500	0.442200	0.446000	0.451100	0.453800	0.457200	0.464800	0.451000	0.454000	0.456100	0.449600	0.448500	0.448200	0.448000	0.447700	0.447400	0.447200	0.448700	0.448400	0.460700	0.459300	0.459400	0.447600	0.455900	0.447700	0.456800	0.456900	0.458400	0.459200	0.456400	0.457100	0.457200
83.000000	0.419500	0.414300	0.408200	0.407800	0.412400	0.410600	0.419700	0.412100	0.409900	0.413500	0.418500	0.421100	0.424400	0.431700	0.418400	0.421200	0.423200	0.417000	0.415900	0.415600	0.415400	0.415100	0.414800	0.414600	0.416100	0.415700	0.427700	0.426300	0.426300	0.415000	0.423000	0.415100	0.423800	0.423900	0.425300	0.426100	0.423400	0.424100	0.424200
84.000000	0.386700	0.381500	0.375500	0.375100	0.379500	0.377800	0.386600	0.379200	0.377000	0.380500	0.385300	0.387800	0.391000	0.398100	0.385100	0.387800	0.389800	0.383800	0.382700	0.382400	0.382200	0.381900	0.381600	0.381400	0.382800	0.382500	0.394100	0.392700	0.392800	0.381800	0.389500	0.381900	0.390300	0.390400	0.391800	0.392500	0.389900	0.390600	0.390600
85.000000	0.353400	0.348200	0.342300	0.341900	0.346100	0.344400	0.352900	0.345800	0.343600	0.347000	0.351600	0.354000	0.357100	0.364000	0.351400	0.354000	0.355900	0.350000	0.349000	0.348700	0.348500	0.348200	0.347900	0.347800	0.349100	0.348800	0.359900	0.358600	0.358700	0.348000	0.355500	0.348100	0.356300	0.356300	0.357700	0.358400	0.355900	0.356500	0.356600
86.000000	0.319700	0.314500	0.308700	0.308200	0.312300	0.310600	0.318800	0.311800	0.309800	0.313000	0.317400	0.319800	0.322800	0.329400	0.317200	0.319700	0.321600	0.315800	0.314800	0.314500	0.314300	0.314100	0.313800	0.313600	0.314900	0.314600	0.325400	0.324100	0.324100	0.313800	0.321000	0.313900	0.321800	0.321900	0.323200	0.323800	0.321400	0.322000	0.322100
87.000000	0.285500	0.280300	0.274600	0.274100	0.278000	0.276400	0.284300	0.277500	0.275500	0.278600	0.282900	0.285100	0.288000	0.294500	0.282600	0.285000	0.286800	0.281200	0.280200	0.279900	0.279700	0.279500	0.279200	0.279000	0.280300	0.279900	0.290400	0.289100	0.289200	0.279200	0.286200	0.279300	0.286900	0.286900	0.288200	0.288900	0.286500	0.287100	0.287100
88.000000	0.251000	0.245800	0.240200	0.239600	0.243400	0.241700	0.249400	0.242800	0.240800	0.243800	0.247900	0.250100	0.252900	0.259200	0.247500	0.249900	0.251600	0.246200	0.245300	0.245000	0.244700	0.244500	0.244200	0.244000	0.245200	0.244900	0.255000	0.253800	0.253800	0.244200	0.250900	0.244300	0.251600	0.251600	0.252900	0.253500	0.251200	0.251800	0.251800
89.000000	0.216200	0.211000	0.205400	0.204800	0.208400	0.206800	0.214200	0.207700	0.205700	0.208600	0.212600	0.214700	0.217400	0.223500	0.212200	0.214500	0.216100	0.210900	0.209900	0.209600	0.209400	0.209200	0.208900	0.208700	0.209900	0.209500	0.219300	0.218100	0.218200	0.208800	0.215300	0.208900	0.216000	0.216000	0.217200	0.217800	0.215600	0.216100	0.216200
90.000000	0.181100	0.175800	0.170300	0.169700	0.173100	0.171500	0.178600	0.172300	0.170400	0.173200	0.177000	0.179100	0.181600	0.187600	0.176600	0.178700	0.180300	0.175200	0.174300	0.174000	0.173800	0.173600	0.173300	0.173100	0.174200	0.173900	0.183400	0.182200	0.182200	0.173200	0.179500	0.173200	0.180100	0.180100	0.181200	0.181800	0.179600	0.180200	0.180200
91.000000	0.145700	0.140400	0.135000	0.134300	0.137600	0.135900	0.142900	0.136700	0.134800	0.137500	0.141200	0.143200	0.145600	0.151400	0.140700	0.142800	0.144300	0.139300	0.138400	0.138100	0.137900	0.137700	0.137400	0.137200	0.138300	0.138000	0.147100	0.146000	0.146000	0.137200	0.143300	0.137300	0.143900	0.143900	0.145000	0.145600	0.143500	0.144000	0.144000
92.000000	0.110100	0.104800	0.099500	0.098700	0.101800	0.100200	0.106900	0.100900	0.099000	0.101600	0.105200	0.107100	0.109500	0.115000	0.104600	0.106600	0.108100	0.103300	0.102400	0.102100	0.101800	0.101600	0.101300	0.101100	0.102100	0.101800	0.110700	0.109600	0.109600	0.101100	0.107000	0.101100	0.107600	0.107600	0.108600	0.109200	0.107100	0.107600	0.107600
93.000000	0.074400	0.069100	0.063800	0.063000	0.065900	0.064300	0.070800	0.064900	0.063100	0.065500	0.069000	0.070800	0.073100	0.078500	0.068300	0.070300	0.071700	0.067000	0.066100	0.065800	0.065600	0.065400	0.065100	0.064900	0.065900	0.065500	0.074200	0.073100	0.073100	0.064800	0.070500	0.064800	0.071100	0.071100	0.072100	0.072600	0.070600	0.071100	0.071100
94.000000	0.038600	0.033300	0.028000	0.027100	0.029900	0.028300	0.034600	0.028800	0.027000	0.029300	0.032700	0.034400	0.036700	0.041900	0.032000	0.033900	0.035200	0.030700	0.029800	0.029500	0.029300	0.029000	0.028700	0.028500	0.029500	0.029200	0.037500	0.036500	0.036400	0.028400	0.033900	0.028400	0.034500	0.034500	0.035400	0.035900	0.034000	0.034400	0.034400
95.000000	0.002800	-0.002600	-0.007900	-0.008800	-0.006100	-0.007700	-0.001700	-0.007400	-0.009100	-0.006900	-0.003700	-0.002000	0.000200	0.005300	-0.004400	-0.002600	-0.001300	-0.005800	-0.006600	-0.006900	-0.007200	-0.007400	-0.007700	-0.007900	-0.007000	-0.007300	0.000800	-0.000200	-0.000200	-0.008100	-0.002700	-0.008100	-0.002200	-0.002200	-0.001300	-0.000800	-0.002700	-0.002200	-0.002300
96.000000	-0.033100	-0.038500	-0.043800	-0.044700	-0.042200	-0.043800	-0.038000	-0.043500	-0.045300	-0.043100	-0.040000	-0.038400	-0.036300	-0.031400	-0.040900	-0.039100	-0.037800	-0.042200	-0.043000	-0.043300	-0.043600	-0.043800	-0.044100	-0.044300	-0.043500	-0.043800	-0.035900	-0.036900	-0.036900	-0.044500	-0.039300	-0.044600	-0.038900	-0.038900	-0.038000	-0.037500	-0.039400	-0.038900	-0.039000
97.000000	-0.068900	-0.074400	-0.079600	-0.080600	-0.078200	-0.079900	-0.074200	-0.079700	-0.081400	-0.079300	-0.076300	-0.074800	-0.072800	-0.068000	-0.077200	-0.075500	-0.074300	-0.078600	-0.079400	-0.079700	-0.080000	-0.080200	-0.080500	-0.080700	-0.079900	-0.080200	-0.072600	-0.073600	-0.073600	-0.081000	-0.075900	-0.081000	-0.075500	-0.075500	-0.074700	-0.074200	-0.076000	-0.075600	-0.075600
98.000000	-0.104600	-0.110200	-0.115400	-0.116500	-0.114200	-0.115800	-0.110400	-0.115700	-0.117400	-0.115500	-0.112600	-0.111100	-0.109200	-0.104500	-0.113500	-0.111900	-0.110800	-0.114900	-0.115700	-0.116000	-0.116300	-0.116500	-0.116800	-0.117000	-0.116200	-0.116600	-0.109200	-0.110100	-0.110200	-0.117300	-0.112500	-0.117400	-0.112000	-0.112100	-0.111200	-0.110800	-0.112600	-0.112200	-0.112200
99.000000	-0.140200	-0.145800	-0.151000	-0.152200	-0.150000	-0.151700	-0.146400	-0.151600	-0.153300	-0.151500	-0.148700	-0.147300	-0.145400	-0.140900	-0.149700	-0.148100	-0.147000	-0.151100	-0.151900	-0.152200	-0.152400	-0.152700	-0.153000	-0.153200	-0.152500	-0.152800	-0.145600	-0.146500	-0.146600	-0.153600	-0.148800	-0.153600	-0.148400	-0.148500	-0.147700	-0.147300	-0.149000	-0.148600	-0.148600
100.000000	-0.175700	-0.181300	-0.186400	-0.187700	-0.185600	-0.187300	-0.182300	-0.187400	-0.189100	-0.187300	-0.184600	-0.183200	-0.181400	-0.177100	-0.185700	-0.184200	-0.183100	-0.187000	-0.187800	-0.188200	-0.188400	-0.188700	-0.189000	-0.189200	-0.188500	-0.188800	-0.181800	-0.182800	-0.182800	-0.189600	-0.185000	-0.189700	-0.184700	-0.184700	-0.183900	-0.183500	-0.185200	-0.184800	-0.184900
101.000000	-0.210800	-0.216500	-0.221700	-0.223000	-0.221000	-0.222700	-0.217900	-0.222900	-0.224600	-0.222800	-0.220300	-0.219000	-0.217200	-0.213000	-0.221400	-0.220000	-0.218900	-0.222800	-0.223600	-0.223900	-0.224200	-0.224500	-0.224800	-0.225000	-0.224300	-0.224600	-0.217800	-0.218700	-0.218800	-0.225400	-0.221000	-0.225500	-0.220600	-0.220700	-0.219900	-0.219500	-0.221200	-0.220800	-0.220900
102.000000	-0.245800	-0.251500	-0.256600	-0.258000	-0.256200	-0.257900	-0.253200	-0.258100	-0.259800	-0.258100	-0.255600	-0.254400	-0.252800	-0.248600	-0.256800	-0.255500	-0.254500	-0.258300	-0.259000	-0.259400	-0.259600	-0.259900	-0.260200	-0.260500	-0.259800	-0.260100	-0.253500	-0.254400	-0.254500	-0.260900	-0.256600	-0.261000	-0.256300	-0.256400	-0.255600	-0.255300	-0.256900	-0.256500	-0.256600
103.000000	-0.280300	-0.286100	-0.291300	-0.292700	-0.291000	-0.292700	-0.288200	-0.293000	-0.294700	-0.293100	-0.290700	-0.289500	-0.287900	-0.283900	-0.292000	-0.290600	-0.289700	-0.293400	-0.294200	-0.294500	-0.294800	-0.295100	-0.295400	-0.295600	-0.295000	-0.295300	-0.288900	-0.289800	-0.289900	-0.296100	-0.291900	-0.296200	-0.291600	-0.291700	-0.291000	-0.290700	-0.292200	-0.291900	-0.292000
104.000000	-0.314500	-0.320400	-0.325500	-0.327000	-0.325400	-0.327100	-0.322800	-0.327500	-0.329200	-0.327700	-0.325400	-0.324300	-0.322700	-0.318900	-0.326700	-0.325400	-0.324500	-0.328100	-0.328900	-0.329300	-0.329500	-0.329800	-0.330100	-0.330400	-0.329800	-0.330100	-0.323900	-0.324800	-0.324800	-0.330900	-0.326900	-0.333100	-0.333100	-0.333200	-0.333200	-0.333300	-0.333300	-0.333400	-0.333400
105.000000	-0.348300	-0.354200	-0.359300	-0.360900	-0.359400	-0.361200	-0.356900	-0.361600	-0.363300	-0.361800	-0.359600	-0.358600	-0.357100	-0.353300	-0.361000	-0.359800	-0.358900	-0.362500	-0.363200	-0.363600	-0.363900	-0.364100	-0.364500	-0.364700	-0.367000	-0.367000	-0.367100	-0.367200	-0.367200	-0.367300	-0.367400	-0.367400	-0.367500	-0.367500	-0.367600	-0.367600	-0.367700	-0.367700	-0.367800
106.000000	-0.381600	-0.387600	-0.392700	-0.394300	-0.392900	-0.394700	-0.390600	-0.395300	-0.396900	-0.395500	-0.393400	-0.392400	-0.391000	-0.387300	-0.394800	-0.393700	-0.392800	-0.396300	-0.397100	-0.397400	-0.400400	-0.400500	-0.400600	-0.400700	-0.400800	-0.400900	-0.400900	-0.401000	-0.401100	-0.401200	-0.401200	-0.401300	-0.401300	-0.401400	-0.401500	-0.401500	-0.401600	-0.401600	-0.401700
107.000000	-0.414400	-0.420400	-0.425600	-0.427200	-0.425900	-0.427700	-0.423800	-0.428400	-0.430000	-0.428700	-0.426600	-0.425700	-0.424300	-0.420800	-0.428100	-0.427000	-0.433100	-0.433300	-0.433400	-0.433500	-0.433700	-0.433800	-0.433900	-0.434000	-0.434100	-0.434200	-0.434200	-0.434300	-0.434400	-0.434500	-0.434600	-0.434600	-0.434700	-0.434800	-0.434800	-0.434900	-0.434900	-0.435000	-0.435100
108.000000	-0.446700	-0.452700	-0.457800	-0.459500	-0.458400	-0.460200	-0.456400	-0.460900	-0.462500	-0.461300	-0.459300	-0.458400	-0.457100	-0.453700	-0.465500	-0.465600	-0.465800	-0.465900	-0.466100	-0.466200	-0.466300	-0.466500	-0.466600	-0.466700	-0.466800	-0.466900	-0.467000	-0.467100	-0.467100	-0.467200	-0.467300	-0.467400	-0.467500	-0.467500	-0.467600	-0.467700	-0.467700	-0.467800	-0.467900
109.000000	-0.478300	-0.484400	-0.489500	-0.491200	-0.490200	-0.492000	-0.488400	-0.492800	-0.494400	-0.493200	-0.491300	-0.490500	-0.497100	-0.497300	-0.497500	-0.497700	-0.497800	-0.498000	-0.498100	-0.498300	-0.498400	-0.498500	-0.498700	-0.498800	-0.498900	-0.499000	-0.499100	-0.499200	-0.499300	-0.499400	-0.499400	-0.499500	-0.499600	-0.499700	-0.499800	-0.499800	-0.499900	-0.500000	-0.500000
110.000000	-0.519100	-0.515400	-0.520500	-0.522300	-0.521400	-0.523200	-0.519700	-0.524000	-0.525600	-0.524500	-0.522700	-0.528200	-0.528400	-0.528600	-0.528800	-0.529000	-0.529200	-0.529400	-0.529500	-0.529700	-0.529800	-0.529900	-0.530100	-0.530200	-0.530300	-0.530400	-0.530500	-0.530600	-0.530700	-0.530800	-0.530900	-0.531000	-0.531100	-0.531200	-0.531200	-0.531300	-0.531400	-0.531500	-0.531500
111.000000	-0.549200	-0.551700	-0.550900	-0.552700	-0.551900	-0.553700	-0.550300	-0.554600	-0.556200	-0.555100	-0.553400	-0.558800	-0.559000	-0.559200	-0.559400	-0.559600	-0.559800	-0.560000	-0.560200	-0.560300	-0.560500	-0.560600	-0.560800	-0.560900	-0.561000	-0.561200	-0.561300	-0.561400	-0.561500	-0.561600	-0.561700	-0.561800	-0.561900	-0.561900	-0.562000	-0.562100	-0.562200	-0.562300	-0.562300
112.000000	-0.578600	-0.581200	-0.582900	-0.582300	-0.581600	-0.583400	-0.580200	-0.584400	-0.586000	-0.585000	-0.588400	-0.588600	-0.588900	-0.589100	-0.589300	-0.589500	-0.589700	-0.589900	-0.590100	-0.590300	-0.590400	-0.590600	-0.590700	-0.590900	-0.591000	-0.591100	-0.591200	-0.591400	-0.591500	-0.591600	-0.591700	-0.591800	-0.591900	-0.592000	-0.592000	-0.592100	-0.592200	-0.592300	-0.592400
113.000000	-0.607200	-0.609900	-0.611700	-0.613100	-0.610500	-0.612300	-0.609200	-0.613400	-0.615000	-0.617200	-0.617400	-0.617700	-0.617900	-0.618200	-0.618400	-0.618600	-0.618800	-0.619000	-0.619200	-0.619400	-0.619600	-0.619700	-0.619900	-0.620000	-0.620200	-0.620300	-0.620400	-0.620500	-0.620700	-0.620800	-0.620900	-0.621000	-0.621100	-0.621200	-0.621300	-0.621300	-0.621400	-0.621500	-0.621600
114.000000	-0.635000	-0.637700	-0.639700	-0.641200	-0.638600	-0.640500	-0.637500	-0.641600	-0.643100	-0.645400	-0.645600	-0.645900	-0.646200	-0.646400	-0.646700	-0.646900	-0.647100	-0.647300	-0.647500	-0.647700	-0.647900	-0.648000	-0.648200	-0.648300	-0.648500	-0.648600	-0.648800	-0.648900	-0.649000	-0.649100	-0.649200	-0.649300	-0.649400	-0.649500	-0.649600	-0.649700	-0.649800	-0.649900	-0.650000
115.000000	-0.661900	-0.664800	-0.666800	-0.668300	-0.665800	-0.667700	-0.664800	-0.668800	-0.670400	-0.672700	-0.672900	-0.673200	-0.673500	-0.673800	-0.674000	-0.674300	-0.674500	-0.674700	-0.674900	-0.675100	-0.675300	-0.675500	-0.675600	-0.675800	-0.675900	-0.676100	-0.676200	-0.676300	-0.676500	-0.676600	-0.676700	-0.676800	-0.676900	-0.677000	-0.677100	-0.677200	-0.677300	-0.677400	-0.677500
116.000000	-0.687900	-0.690900	-0.693000	-0.694600	-0.695900	-0.694000	-0.691200	-0.695200	-0.696800	-0.699100	-0.699400	-0.699700	-0.699900	-0.700200	-0.700500	-0.700700	-0.701000	-0.701200	-0.701400	-0.701600	-0.701800	-0.702000	-0.702100	-0.702300	-0.702500	-0.702600	-0.702700	-0.702900	-0.703000	-0.703100	-0.703200	-0.703400	-0.703500	-0.703600	-0.703700	-0.703800	-0.703900	-0.704000	-0.704100
117.000000	-0.713000	-0.716100	-0.718200	-0.719900	-0.721300	-0.719400	-0.716700	-0.720600	-0.724400	-0.724500	-0.724800	-0.725100	-0.725400	-0.725700	-0.726000	-0.726200	-0.726500	-0.726700	-0.726900	-0.727100	-0.727300	-0.727500	-0.727700	-0.727900	-0.728000	-0.728200	-0.728300	-0.728400	-0.728600	-0.728700	-0.728800	-0.728900	-0.729100	-0.729200	-0.729300	-0.729400	-0.729500	-0.729600	-0.729700
118.000000	-0.737100	-0.740300	-0.742500	-0.744200	-0.745600	-0.743800	-0.741200	-0.745100	-0.748800	-0.749000	-0.749300	-0.749600	-0.749900	-0.750200	-0.750500	-0.750800	-0.751000	-0.751200	-0.751500	-0.751700	-0.751900	-0.752100	-0.752200	-0.752400	-0.752600	-0.752700	-0.752900	-0.753000	-0.753200	-0.753300	-0.753400	-0.753500	-0.753600	-0.753800	-0.753900	-0.754000	-0.754100	-0.754200	-0.754300
119.000000	-0.760200	-0.763500	-0.765800	-0.767500	-0.769000	-0.767100	-0.764700	-0.768500	-0.772200	-0.772400	-0.772700	-0.773100	-0.773400	-0.773700	-0.774000	-0.774200	-0.774500	-0.774700	-0.775000	-0.775200	-0.775400	-0.775600	-0.775800	-0.775900	-0.776100	-0.776300	-0.776400	-0.776600	-0.776700	-0.776800	-0.777000	-0.777100	-0.777200	-0.777300	-0.777400	-0.777500	-0.777600	-0.777700	-0.777800
120.000000	-0.782300	-0.785700	-0.788000	-0.789800	-0.791300	-0.789400	-0.787100	-0.790800	-0.794600	-0.794800	-0.795100	-0.795400	-0.795800	-0.796100	-0.796400	-0.796600	-0.796900	-0.797200	-0.797400	-0.797600	-0.797800	-0.798000	-0.798200	-0.798400	-0.798600	-0.798700	-0.798900	-0.799000	-0.799200	-0.799300	-0.799400	-0.799600	-0.799700	-0.799800	-0.799900	-0.800000	-0.800100	-0.800200	-0.800300
121.000000	-0.803300	-0.806800	-0.809100	-0.810900	-0.812500	-0.814100	-0.808400	-0.812000	-0.815900	-0.816100	-0.816400	-0.816700	-0.817100	-0.817400	-0.817700	-0.818000	-0.818200	-0.818500	-0.818700	-0.818900	-0.819200	-0.819400	-0.819600	-0.819700	-0.819900	-0.820100	-0.820200	-0.820400	-0.820500	-0.820700	-0.820800	-0.820900	-0.821100	-0.821200	-0.821300	-0.821400	-0.821500	-0.821600	-0.821700
122.000000	-0.823300	-0.826700	-0.829200	-0.831000	-0.832600	-0.834300	-0.828500	-0.832200	-0.836000	-0.836200	-0.836600	-0.836900	-0.837200	-0.837600	-0.837900	-0.838200	-0.838400	-0.838700	-0.838900	-0.839200	-0.839400	-0.839600	-0.839800	-0.840000	-0.840100	-0.840300	-0.840500	-0.840600	-0.840800	-0.840900	-0.841000	-0.841200	-0.841300	-0.841400	-0.841500	-0.841700	-0.841800	-0.841900	-0.842000
123.000000	-0.842100	-0.845600	-0.848000	-0.849900	-0.851500	-0.853200	-0.847600	-0.851100	-0.855100	-0.855300	-0.855600	-0.855900	-0.856300	-0.856600	-0.856900	-0.857200	-0.857500	-0.857700	-0.858000	-0.858200	-0.858400	-0.858600	-0.858800	-0.859000	-0.859200	-0.859400	-0.859500	-0.859700	-0.859800	-0.860000	-0.860100	-0.860300	-0.860400	-0.860500	-0.860600	-0.860700	-0.860900	-0.861000	-0.861100
124.000000	-0.859700	-0.863300	-0.865800	-0.867700	-0.869300	-0.871000	-0.865400	-0.868900	-0.872900	-0.873100	-0.873400	-0.873800	-0.874100	-0.874400	-0.874700	-0.875000	-0.875300	-0.875600	-0.875800	-0.876100	-0.876300	-0.876500	-0.876700	-0.876900	-0.877100	-0.877200	-0.877400	-0.877600	-0.877700	-0.877900	-0.878000	-0.878100	-0.878300	-0.878400	-0.878500	-0.878600	-0.878800	-0.878900	-0.879000
125.000000	-0.876100	-0.879800	-0.882300	-0.884200	-0.885900	-0.887700	-0.882000	-0.885500	-0.889500	-0.889700	-0.890000	-0.890400	-0.890700	-0.891100	-0.891400	-0.891700	-0.892000	-0.892200	-0.892500	-0.892700	-0.892900	-0.893200	-0.893400	-0.893600	-0.893700	-0.893900	-0.894100	-0.894200	-0.894400	-0.894500	-0.894700	-0.894800	-0.895000	-0.895100	-0.895200	-0.895300	-0.895400	-0.895500	-0.895700
126.000000	-0.891400	-0.895100	-0.897600	-0.899600	-0.901200	-0.903000	-0.897400	-0.900900	-0.904900	-0.905100	-0.905400	-0.905800	-0.906100	-0.906500	-0.906800	-0.907100	-0.907400	-0.907600	-0.907900	-0.908100	-0.908400	-0.908600	-0.908800	-0.909000	-0.909200	-0.909300	-0.909500	-0.909700	-0.909800	-0.910000	-0.910100	-0.910300	-0.910400	-0.910500	-0.910600	-0.910800	-0.910900	-0.911000	-0.911100
127.000000	-0.905400	-0.909100	-0.911700	-0.913700	-0.915400	-0.917200	-0.911600	-0.915000	-0.919100	-0.919300	-0.919600	-0.919900	-0.920300	-0.920600	-0.920900	-0.921200	-0.921500	-0.921800	-0.922100	-0.922300	-0.922500	-0.922700	-0.922900	-0.923100	-0.923300	-0.923500	-0.923700	-0.923800	-0.924000	-0.924100	-0.924300	-0.924400	-0.924600	-0.924700	-0.924800	-0.924900	-0.925100	-0.925200	-0.925300
128.000000	-0.918200	-0.921900	-0.924500	-0.926500	-0.928200	-0.930100	-0.924500	-0.927800	-0.932000	-0.932100	-0.932500	-0.932800	-0.933200	-0.933500	-0.933800	-0.934100	-0.934400	-0.934700	-0.934900	-0.935200	-0.935400	-0.935600	-0.935800	-0.936000	-0.936200	-0.936400	-0.936600	-0.936700	-0.936900	-0.937000	-0.937200	-0.937300	-0.937500	-0.937600	-0.937700	-0.937800	-0.937900	-0.938100	-0.938200
129.000000	-0.929700	-0.933500	-0.936100	-0.938100	-0.939800	-0.941700	-0.936100	-0.939300	-0.943600	-0.943700	-0.944100	-0.944400	-0.944800	-0.945100	-0.945400	-0.945700	-0.946000	-0.946300	-0.946500	-0.946800	-0.947000	-0.947200	-0.947400	-0.947600	-0.947800	-0.948000	-0.948200	-0.948300	-0.948500	-0.948600	-0.948800	-0.948900	-0.949000	-0.949200	-0.949300	-0.949400	-0.949500	-0.949700	-0.949800
130.000000	-0.940000	-0.943700	-0.946400	-0.948400	-0.950100	-0.952000	-0.946300	-0.954800	-0.953900	-0.954000	-0.954400	-0.954700	-0.955000	-0.955400	-0.955700	-0.956000	-0.956300	-0.956600	-0.956800	-0.957100	-0.957300	-0.957500	-0.957700	-0.957900	-0.958100	-0.958300	-0.958400	-0.958600	-0.958800	-0.958900	-0.959100	-0.959200	-0.959300	-0.959500	-0.959600	-0.959700	-0.959800	-0.959900	-0.960000
131.000000	-0.948900	-0.952700	-0.955300	-0.957300	-0.959100	-0.961000	-0.955300	-0.963800	-0.962900	-0.963000	-0.963300	-0.963700	-0.964000	-0.964300	-0.964700	-0.965000	-0.965200	-0.965500	-0.965800	-0.966000	-0.966200	-0.966500	-0.966700	-0.966900	-0.967000	-0.967200	-0.967400	-0.967600	-0.967700	-0.967900	-0.968000	-0.968100	-0.968300	-0.968400	-0.968500	-0.968700	-0.968800	-0.968900	-0.969000
132.000000	-0.956600	-0.960300	-0.963000	-0.965000	-0.966700	-0.968700	-0.962900	-0.971500	-0.970500	-0.970700	-0.971000	-0.971300	-0.971700	-0.972000	-0.972300	-0.972600	-0.972900	-0.973100	-0.973400	-0.973600	-0.973900	-0.974100	-0.974300	-0.974500	-0.974700	-0.974800	-0.975000	-0.975200	-0.975300	-0.975500	-0.975600	-0.975800	-0.975900	-0.976000	-0.976100	-0.976300	-0.976400	-0.976500	-0.976600
133.000000	-0.962900	-0.966700	-0.969300	-0.971300	-0.973100	-0.975000	-0.969200	-0.977900	-0.976900	-0.977000	-0.977300	-0.977600	-0.978000	-0.978300	-0.978600	-0.978900	-0.979200	-0.979400	-0.979700	-0.979900	-0.980100	-0.980400	-0.980600	-0.980800	-0.980900	-0.981100	-0.981300	-0.981400	-0.981600	-0.981800	-0.981900	-0.982000	-0.982200	-0.982300	-0.982400	-0.982500	-0.982600	-0.982800	-0.982900
134.000000	-0.967900	-0.971700	-0.974300	-0.976300	-0.978100	-0.980000	-0.974200	-0.982900	-0.981900	-0.982000	-0.982300	-0.982600	-0.982900	-0.983200	-0.983500	-0.983800	-0.984100	-0.984400	-0.984600	-0.984900	-0.985100	-0.985300	-0.985500	-0.985700	-0.985900	-0.986000	-0.986200	-0.986400	-0.986500	-0.986700	-0.986800	-0.986900	-0.987100	-0.987200	-0.987300	-0.987400	-0.987600	-0.987700	-0.987800
135.000000	-0.971600	-0.975400	-0.978000	-0.980000	-0.981700	-0.983700	-0.977800	-0.986500	-0.985500	-0.985600	-0.985900	-0.986200	-0.986500	-0.986800	-0.987100	-0.987400	-0.987700	-0.988000	-0.988200	-0.988400	-0.988700	-0.988900	-0.989100	-0.989300	-0.989400	-0.989600	-0.989800	-0.989900	-0.990100	-0.990200	-0.990400	-0.990500	-0.990600	-0.990800	-0.990900	-0.991000	-0.991100	-0.991200	-0.991300
136.000000	-0.974000	-0.977700	-0.980300	-0.982300	-0.984100	-0.986000	-0.980000	-0.988800	-0.987800	-0.987900	-0.988200	-0.988500	-0.988800	-0.989100	-0.989400	-0.989700	-0.989900	-0.990200	-0.990400	-0.990700	-0.990900	-0.991100	-0.991300	-0.991500	-0.991700	-0.991800	-0.992000	-0.992100	-0.992300	-0.992400	-0.992600	-0.992700	-0.992800	-0.993000	-0.993100	-0.993200	-0.993300	-0.993400	-0.993500
137.000000	-0.975000	-0.978700	-0.981300	-0.983300	-0.985100	-0.987000	-0.980900	-0.989800	-0.988800	-0.988800	-0.989100	-0.989400	-0.989700	-0.990000	-0.990300	-0.990600	-0.990800	-0.991100	-0.991300	-0.991600	-0.991800	-0.992000	-0.992200	-0.992300	-0.992500	-0.992700	-0.992800	-0.993000	-0.993100	-0.993300	-0.993400	-0.993600	-0.993700	-0.993800	-0.993900	-0.994000	-0.994100	-0.994200	-0.994300
138.000000	-0.974800	-0.978400	-0.981000	-0.983000	-0.984700	-0.986600	-0.980400	-0.989400	-0.988400	-0.988400	-0.988700	-0.989000	-0.989300	-0.989600	-0.989800	-0.990100	-0.990400	-0.990600	-0.990900	-0.991100	-0.991300	-0.991500	-0.991700	-0.991900	-0.992000	-0.992200	-0.992300	-0.992500	-0.992600	-0.992800	-0.992900	-0.993000	-0.993200	-0.993300	-0.993400	-0.993500	-0.993600	-0.993700	-0.993800
139.000000	-0.973200	-0.976800	-0.979300	-0.981300	-0.983000	-0.984900	-0.978600	-0.987700	-0.986700	-0.986700	-0.986900	-0.987200	-0.987500	-0.987800	-0.988100	-0.988300	-0.988600	-0.988800	-0.989000	-0.989300	-0.989500	-0.989700	-0.989800	-0.990000	-0.990200	-0.990300	-0.990500	-0.990600	-0.990800	-0.990900	-0.991100	-0.991200	-0.991300	-0.991400	-0.991500	-0.991600	-0.991700	-0.991800	-0.991900
140.000000	-0.970300	-0.973800	-0.976300	-0.978300	-0.980000	-0.981900	-0.975400	-0.984600	-0.983600	-0.983600	-0.983800	-0.984100	-0.984400	-0.984700	-0.984900	-0.985200	-0.985400	-0.985700	-0.985900	-0.986100	-0.986300	-0.986500	-0.986700	-0.986800	-0.987000	-0.987200	-0.987300	-0.987500	-0.987600	-0.987700	-0.987900	-0.988000	-0.988100	-0.988200	-0.988300	-0.988400	-0.988500	-0.988600	-0.988700
141.000000	-0.966000	-0.969600	-0.972000	-0.974000	-0.975600	-0.977500	-0.970900	-0.980300	-0.979200	-0.979200	-0.979400	-0.979700	-0.979900	-0.980200	-0.980500	-0.980700	-0.981000	-0.981200	-0.981400	-0.981600	-0.981800	-0.982000	-0.982200	-0.982300	-0.982500	-0.982700	-0.982800	-0.982900	-0.983100	-0.983200	-0.983300	-0.983500	-0.983600	-0.983700	-0.983800	-0.983900	-0.984000	-0.984100	-0.984200
142.000000	-0.960500	-0.964000	-0.966400	-0.968300	-0.970000	-0.971900	-0.965000	-0.974500	-0.973500	-0.973500	-0.973700	-0.973900	-0.974200	-0.974500	-0.974700	-0.975000	-0.975200	-0.975400	-0.975600	-0.975800	-0.976000	-0.976200	-0.976400	-0.976500	-0.976700	-0.976800	-0.977000	-0.977100	-0.977200	-0.977400	-0.977500	-0.977600	-0.977700	-0.977800	-0.977900	-0.978000	-0.978100	-0.978200	-0.978300
143.000000	-0.953800	-0.957100	-0.959500	-0.961400	-0.963100	-0.964900	-0.957900	-0.967500	-0.966500	-0.966500	-0.966700	-0.966900	-0.967200	-0.967400	-0.967700	-0.967900	-0.968100	-0.968300	-0.968500	-0.968700	-0.968900	-0.969100	-0.969300	-0.969400	-0.969600	-0.969700	-0.969900	-0.970000	-0.970100	-0.970200	-0.970400	-0.970500	-0.970600	-0.970700	-0.970800	-0.970900	-0.971000	-0.971100	-0.971100
144.000000	-0.945700	-0.949000	-0.951400	-0.953200	-0.954900	-0.956700	-0.949400	-0.959200	-0.958200	-0.958200	-0.958400	-0.958600	-0.958800	-0.959100	-0.959300	-0.959600	-0.959800	-0.960000	-0.960200	-0.960400	-0.960500	-0.960700	-0.960900	-0.961000	-0.961200	-0.961300	-0.961500	-0.961600	-0.961700	-0.961800	-0.961900	-0.962000	-0.962100	-0.962300	-0.962300	-0.962400	-0.962500	-0.962600	-0.962700
145.000000	-0.936400	-0.939700	-0.942000	-0.943800	-0.945400	-0.947200	-0.939700	-0.949700	-0.948700	-0.948700	-0.948800	-0.949000	-0.949300	-0.949500	-0.949700	-0.950000	-0.950200	-0.950400	-0.950600	-0.950700	-0.950900	-0.951100	-0.951200	-0.951400	-0.951500	-0.951700	-0.951800	-0.951900	-0.952000	-0.952100	-0.952300	-0.952400	-0.952500	-0.952600	-0.952700	-0.952700	-0.952800	-0.952900	-0.953000
146.000000	-0.925900	-0.929100	-0.931400	-0.933100	-0.934700	-0.936400	-0.928600	-0.938800	-0.937900	-0.937900	-0.938000	-0.938200	-0.938500	-0.938700	-0.938900	-0.939100	-0.939300	-0.939500	-0.939700	-0.939900	-0.940000	-0.940200	-0.940400	-0.940500	-0.940600	-0.940800	-0.940900	-0.941000	-0.941100	-0.941200	-0.941400	-0.941500	-0.941600	-0.941600	-0.941700	-0.941800	-0.941900	-0.942000	-0.942100
147.000000	-0.914200	-0.917300	-0.919500	-0.921300	-0.922800	-0.924500	-0.916400	-0.926800	-0.925900	-0.925900	-0.926100	-0.926200	-0.926500	-0.926700	-0.926900	-0.927100	-0.927300	-0.927500	-0.927700	-0.927800	-0.928000	-0.928100	-0.928300	-0.928400	-0.928600	-0.928700	-0.928800	-0.928900	-0.929000	-0.929100	-0.929200	-0.929300	-0.929400	-0.929500	-0.929600	-0.929700	-0.929800	-0.929900	-0.929900
148.000000	-0.901300	-0.904400	-0.906500	-0.908200	-0.909700	-0.911300	-0.902900	-0.913500	-0.912700	-0.912700	-0.912900	-0.913100	-0.913300	-0.913500	-0.913700	-0.913900	-0.914100	-0.914300	-0.914400	-0.914600	-0.914800	-0.914900	-0.915000	-0.915200	-0.915300	-0.915400	-0.915500	-0.915700	-0.915800	-0.915900	-0.916000	-0.916100	-0.916200	-0.916200	-0.916300	-0.916400	-0.916500	-0.916600	-0.916600
149.000000	-0.887300	-0.890300	-0.892400	-0.894000	-0.895400	-0.897000	-0.888200	-0.899100	-0.898400	-0.898400	-0.898600	-0.898700	-0.898900	-0.899100	-0.899300	-0.899500	-0.899700	-0.899900	-0.900100	-0.900200	-0.900400	-0.900500	-0.900700	-0.900800	-0.900900	-0.901000	-0.901200	-0.901300	-0.901400	-0.901500	-0.901600	-0.901700	-0.901700	-0.901800	-0.901900	-0.902000	-0.902100	-0.902100	-0.902200
150.000000	-0.872200	-0.875100	-0.877100	-0.878700	-0.880000	-0.881500	-0.872300	-0.883500	-0.882900	-0.883000	-0.883100	-0.883300	-0.883500	-0.883700	-0.883900	-0.884100	-0.884300	-0.884500	-0.884600	-0.884800	-0.884900	-0.885100	-0.885200	-0.885300	-0.885400	-0.885600	-0.885700	-0.885800	-0.885900	-0.886000	-0.886100	-0.886200	-0.886200	-0.886300	-0.886400	-0.886500	-0.886600	-0.886600	-0.886700
151.000000	-0.856100	-0.858800	-0.860800	-0.862300	-0.863600	-0.864900	-0.855300	-0.866700	-0.866300	-0.866400	-0.866600	-0.866800	-0.867000	-0.867200	-0.867400	-0.867600	-0.867800	-0.868000	-0.868100	-0.868300	-0.868400	-0.868600	-0.868700	-0.868800	-0.868900	-0.869100	-0.869200	-0.869300	-0.869400	-0.869500	-0.869600	-0.869600	-0.869700	-0.869800	-0.869900	-0.870000	-0.870000	-0.870100	-0.870200
152.000000	-0.838900	-0.841600	-0.843400	-0.844900	-0.846100	-0.847300	-0.837200	-0.848900	-0.848700	-0.848800	-0.849100	-0.849300	-0.849500	-0.849700	-0.849900	-0.850100	-0.850300	-0.850500	-0.850600	-0.850800	-0.850900	-0.851100	-0.851200	-0.851300	-0.851400	-0.851600	-0.851700	-0.851800	-0.851900	-0.852000	-0.852100	-0.852100	-0.852200	-0.852300	-0.852400	-0.852500	-0.852500	-0.852600	-0.852700
153.000000	-0.820800	-0.823300	-0.825100	-0.826400	-0.827500	-0.828600	-0.818000	-0.830000	-0.830100	-0.830300	-0.830500	-0.830800	-0.831000	-0.831200	-0.831500	-0.831700	-0.831800	-0.832000	-0.832200	-0.832300	-0.832500	-0.832600	-0.832800	-0.832900	-0.833000	-0.833100	-0.833300	-0.833400	-0.833500	-0.833600	-0.833700	-0.833700	-0.833800	-0.833900	-0.834000	-0.834100	-0.834100	-0.834200	-0.834300
154.000000	-0.801700	-0.804100	-0.805800	-0.807000	-0.808000	-0.808900	-0.797700	-0.810100	-0.810400	-0.810700	-0.811100	-0.811400	-0.811600	-0.811900	-0.812100	-0.812300	-0.812500	-0.812700	-0.812900	-0.813100	-0.813200	-0.813400	-0.813500	-0.813600	-0.813800	-0.813900	-0.814000	-0.814100	-0.814200	-0.814300	-0.814400	-0.814500	-0.814600	-0.814700	-0.814800	-0.814900	-0.815000	-0.815000	-0.815100
155.000000	-0.781800	-0.784100	-0.785600	-0.786800	-0.787600	-0.788200	-0.776400	-0.789200	-0.789800	-0.790300	-0.790700	-0.791100	-0.791400	-0.791700	-0.791900	-0.792200	-0.792400	-0.792600	-0.792800	-0.793000	-0.793200	-0.793300	-0.793500	-0.793600	-0.793800	-0.793900	-0.794000	-0.794200	-0.794300	-0.794400	-0.794500	-0.794600	-0.794700	-0.794800	-0.794900	-0.795000	-0.795100	-0.795200	-0.795300
156.000000	-0.761100	-0.763300	-0.764700	-0.765700	-0.766300	-0.766700	-0.754200	-0.767400	-0.768400	-0.769100	-0.769600	-0.770000	-0.770400	-0.770700	-0.771000	-0.771300	-0.771600	-0.771800	-0.772000	-0.772300	-0.772400	-0.772600	-0.772800	-0.773000	-0.773100	-0.773300	-0.773400	-0.773600	-0.773700	-0.773800	-0.774000	-0.774100	-0.774200	-0.774300	-0.774400	-0.774600	-0.774700	-0.774800	-0.774900
157.000000	-0.739700	-0.741700	-0.743000	-0.743800	-0.744200	-0.744200	-0.731000	-0.744600	-0.746100	-0.747000	-0.747700	-0.748200	-0.748700	-0.749100	-0.749500	-0.749800	-0.750100	-0.750400	-0.750700	-0.751000	-0.751200	-0.751400	-0.751600	-0.751800	-0.752000	-0.752200	-0.752400	-0.752600	-0.752700	-0.752900	-0.753000	-0.753200	-0.753300	-0.753500	-0.753600	-0.753700	-0.753900	-0.754000	-0.754100
158.000000	-0.717800	-0.719500	-0.720600	-0.721200	-0.721400	-0.721000	-0.706900	-0.721000	-0.723000	-0.724200	-0.725100	-0.725800	-0.726400	-0.727000	-0.727400	-0.727900	-0.728300	-0.728600	-0.729000	-0.729300	-0.729600	-0.729800	-0.730100	-0.730400	-0.730600	-0.730800	-0.731000	-0.731300	-0.731500	-0.731700	-0.731900	-0.732100	-0.732300	-0.732400	-0.732600	-0.732800	-0.733000	-0.733200	-0.733400
159.000000	-0.695300	-0.696800	-0.697700	-0.698000	-0.697800	-0.696900	-0.681900	-0.696600	-0.699300	-0.700900	-0.702000	-0.703000	-0.703700	-0.704400	-0.705000	-0.705600	-0.706100	-0.706500	-0.707000	-0.707400	-0.707800	-0.708100	-0.708500	-0.708800	-0.709100	-0.709400	-0.709700	-0.710000	-0.710300	-0.710500	-0.710800	-0.711100	-0.711300	-0.711600	-0.711800	-0.712100	-0.712400	-0.712600	-0.712900
160.000000	-0.672400	-0.673700	-0.674300	-0.674300	-0.673700	-0.672200	-0.656100	-0.671300	-0.674800	-0.676900	-0.678500	-0.679700	-0.680700	-0.681600	-0.682400	-0.683200	-0.683800	-0.684400	-0.685000	-0.685600	-0.686100	-0.686600	-0.687000	-0.687500	-0.687900	-0.688300	-0.688700	-0.689100	-0.689500	-0.689900	-0.690300	-0.690600	-0.691000	-0.691400	-0.691700	-0.692100	-0.692500	-0.692800	-0.693200
161.000000	-0.649400	-0.650300	-0.650500	-0.650100	-0.649000	-0.646800	-0.629600	-0.645300	-0.649800	-0.652600	-0.654600	-0.656200	-0.657600	-0.658800	-0.659900	-0.660900	-0.661800	-0.662600	-0.663400	-0.664200	-0.664900	-0.665500	-0.666200	-0.666800	-0.667400	-0.668000	-0.668600	-0.669200	-0.669700	-0.670300	-0.670800	-0.671300	-0.671900	-0.672400	-0.673000	-0.673500	-0.674100	-0.674600	-0.675200
162.000000	-0.626400	-0.626900	-0.626600	-0.625600	-0.623900	-0.620700	-0.602300	-0.618600	-0.624300	-0.627900	-0.630500	-0.632700	-0.634600	-0.636300	-0.637700	-0.639100	-0.640300	-0.641500	-0.642600	-0.643700	-0.644700	-0.645600	-0.646600	-0.647500	-0.648300	-0.649200	-0.650000	-0.650900	-0.651700	-0.652500	-0.653300	-0.654100	-0.654900	-0.655800	-0.656600	-0.657400	-0.658300	-0.659100	-0.660000
163.000000	-0.603700	-0.603600	-0.602700	-0.601000	-0.598400	-0.594100	-0.574300	-0.591300	-0.598400	-0.603000	-0.606500	-0.609500	-0.612000	-0.614300	-0.616400	-0.618300	-0.620000	-0.621700	-0.623300	-0.624800	-0.626200	-0.627600	-0.629000	-0.630300	-0.631600	-0.632900	-0.634200	-0.635400	-0.636600	-0.637900	-0.639100	-0.640400	-0.641600	-0.642900	-0.644200	-0.645500	-0.646800	-0.648200	-0.649600
164.000000	-0.581600	-0.580800	-0.579000	-0.576400	-0.572700	-0.567100	-0.545700	-0.563300	-0.572100	-0.578100	-0.582800	-0.586800	-0.590300	-0.593400	-0.596300	-0.599000	-0.601600	-0.604000	-0.606300	-0.608500	-0.610600	-0.612700	-0.614700	-0.616700	-0.618700	-0.620600	-0.622500	-0.624400	-0.626400	-0.628300	-0.630200	-0.632200	-0.634100	-0.636100	-0.638200	-0.640300	-0.642400	-0.644700	-0.647000
165.000000	-0.560600	-0.558700	-0.555900	-0.552000	-0.546900	-0.539500	-0.516500	-0.534800	-0.545600	-0.553300	-0.559600	-0.565000	-0.569900	-0.574300	-0.578400	-0.582300	-0.586000	-0.589500	-0.592900	-0.596100	-0.599300	-0.602500	-0.605500	-0.608600	-0.611600	-0.614600	-0.617500	-0.620500	-0.623500	-0.626500	-0.629600	-0.632700	-0.635800	-0.639000	-0.642300	-0.645700	-0.649200	-0.652800	-0.656600
166.000000	-0.541200	-0.537900	-0.533600	-0.528100	-0.521100	-0.511700	-0.486700	-0.505800	-0.518900	-0.528900	-0.537300	-0.544800	-0.551600	-0.557800	-0.563700	-0.569300	-0.574700	-0.579900	-0.584900	-0.589800	-0.594600	-0.599300	-0.604000	-0.608700	-0.613300	-0.617900	-0.622600	-0.627200	-0.631900	-0.636700	-0.641500	-0.646400	-0.651400	-0.656500	-0.661800	-0.667200	-0.672800	-0.678700	-0.684800
167.000000	-0.524100	-0.519000	-0.512600	-0.504900	-0.495500	-0.483400	-0.456500	-0.476300	-0.492200	-0.505100	-0.516400	-0.526700	-0.536200	-0.545100	-0.553600	-0.561700	-0.569600	-0.577200	-0.584700	-0.592100	-0.599300	-0.606500	-0.613600	-0.620700	-0.627700	-0.634800	-0.641900	-0.649100	-0.656300	-0.663600	-0.671100	-0.678600	-0.686300	-0.694200	-0.702300	-0.710600	-0.719200	-0.728100	-0.737400
168.000000	-0.510300	-0.502600	-0.493400	-0.482800	-0.470200	-0.455000	-0.425800	-0.446300	-0.465600	-0.482300	-0.497500	-0.511600	-0.524800	-0.537500	-0.549700	-0.561500	-0.572900	-0.584100	-0.595100	-0.605900	-0.616500	-0.627100	-0.637600	-0.648000	-0.658300	-0.668700	-0.679000	-0.689400	-0.699800	-0.710300	-0.720900	-0.731600	-0.742400	-0.753400	-0.764500	-0.775900	-0.787500	-0.799400	-0.811700
169.000000	-0.500600	-0.489500	-0.476700	-0.462100	-0.445500	-0.426300	-0.394700	-0.415900	-0.439200	-0.460800	-0.481100	-0.500400	-0.518800	-0.536600	-0.553800	-0.570500	-0.586600	-0.602400	-0.617800	-0.632900	-0.647600	-0.662100	-0.676300	-0.690300	-0.704100	-0.717600	-0.731000	-0.744200	-0.757200	-0.770100	-0.782900	-0.795600	-0.808100	-0.820600	-0.832900	-0.845200	-0.857500	-0.869700	-0.881900
170.000000	-0.496000	-0.480500	-0.462900	-0.443200	-0.421400	-0.397400	-0.363200	-0.385000	-0.413100	-0.440900	-0.467800	-0.493900	-0.519100	-0.543300	-0.566500	-0.588800	-0.610200	-0.630700	-0.650400	-0.669200	-0.687200	-0.704400	-0.720900	-0.736700	-0.751800	-0.766300	-0.780100	-0.793300	-0.806000	-0.818100	-0.829600	-0.840700	-0.851200	-0.861300	-0.871000	-0.880100	-0.888900	-0.897300	-0.905200
171.000000	-0.496000	-0.475700	-0.452300	-0.426400	-0.398100	-0.368400	-0.331500	-0.353800	-0.387400	-0.422700	-0.458000	-0.492400	-0.525100	-0.556100	-0.585000	-0.611900	-0.636700	-0.659700	-0.680700	-0.700000	-0.717700	-0.733900	-0.748600	-0.762100	-0.774400	-0.785600	-0.795900	-0.805200	-0.813600	-0.821300	-0.828300	-0.834700	-0.840500	-0.845700	-0.850400	-0.854700	-0.858500	-0.861900	-0.865000
172.000000	-0.498300	-0.473600	-0.444400	-0.411400	-0.375600	-0.339100	-0.299500	-0.322200	-0.362000	-0.406400	-0.451200	-0.493900	-0.533300	-0.568500	-0.599700	-0.626800	-0.650300	-0.670500	-0.687800	-0.702600	-0.715400	-0.726200	-0.735500	-0.743400	-0.750200	-0.756000	-0.760900	-0.765200	-0.768800	-0.771900	-0.774500	-0.776700	-0.778600	-0.780200	-0.781500	-0.782600	-0.783500	-0.784300	-0.784900
173.000000	-0.496300	-0.470100	-0.436900	-0.397400	-0.353500	-0.309500	-0.267300	-0.290200	-0.336600	-0.391000	-0.444800	-0.493400	-0.534500	-0.568100	-0.595000	-0.616200	-0.632800	-0.645700	-0.655800	-0.663800	-0.670000	-0.674900	-0.678700	-0.681700	-0.684100	-0.686000	-0.687400	-0.688600	-0.689500	-0.690300	-0.690900	-0.691300	-0.691700	-0.692000	-0.692300	-0.692500	-0.692700	-0.692900	-0.693100
174.000000	-0.480200	-0.457600	-0.424800	-0.381900	-0.331000	-0.279300	-0.234900	-0.257600	-0.310800	-0.374500	-0.433800	-0.481400	-0.516600	-0.541500	-0.558900	-0.570800	-0.579100	-0.584800	-0.588800	-0.591500	-0.593500	-0.594900	-0.595900	-0.596600	-0.597200	-0.597600	-0.597900	-0.598200	-0.598500	-0.598700	-0.598900	-0.599100	-0.599300	-0.599500	-0.599700	-0.599900	-0.600000	-0.600200	-0.600300
175.000000	-0.441400	-0.426900	-0.400800	-0.360500	-0.306300	-0.248200	-0.202500	-0.224500	-0.283600	-0.353300	-0.410100	-0.448100	-0.471300	-0.484900	-0.492800	-0.497500	-0.500200	-0.501800	-0.502900	-0.503500	-0.504000	-0.504300	-0.504600	-0.504900	-0.505100	-0.505300	-0.505600	-0.505800	-0.506000	-0.506200	-0.506300	-0.506500	-0.506700	-0.506900	-0.507000	-0.507200	-0.507300	-0.507500	-0.507600
176.000000	-0.379300	-0.373600	-0.358000	-0.327200	-0.276600	-0.215400	-0.170000	-0.190700	-0.253200	-0.321700	-0.366800	-0.390100	-0.401200	-0.406400	-0.408800	-0.410000	-0.410600	-0.411000	-0.411300	-0.411600	-0.411900	-0.412100	-0.412300	-0.412500	-0.412700	-0.412900	-0.413100	-0.413300	-0.413500	-0.413600	-0.413800	-0.413900	-0.414100	-0.414200	-0.414300	-0.414500	-0.414600	-0.414700	-0.414800
177.000000	-0.301100	-0.301100	-0.294900	-0.277100	-0.238000	-0.180100	-0.137500	-0.155900	-0.216900	-0.274400	-0.302300	-0.312700	-0.316300	-0.317700	-0.318200	-0.318500	-0.318800	-0.319000	-0.319200	-0.319500	-0.319700	-0.319900	-0.320100	-0.320200	-0.320400	-0.320500	-0.320700	-0.320800	-0.321000	-0.321100	-0.321200	-0.321300	-0.321500	-0.321600	-0.321700	-0.321800	-0.321900	-0.322000	-0.322100
178.000000	-0.215300	-0.217200	-0.216500	-0.209500	-0.186600	-0.140700	-0.105000	-0.119800	-0.171400	-0.209600	-0.221900	-0.225000	-0.225800	-0.226100	-0.226400	-0.226600	-0.226800	-0.227000	-0.227200	-0.227300	-0.227500	-0.227600	-0.227800	-0.227900	-0.228000	-0.228100	-0.228300	-0.228400	-0.228500	-0.228600	-0.228700	-0.228800	-0.228800	-0.228900	-0.229000	-0.229100	-0.229200	-0.229200	-0.229300
179.000000	-0.127400	-0.129100	-0.129900	-0.128700	-0.120500	-0.095300	-0.072700	-0.082000	-0.113600	-0.130100	-0.133400	-0.134000	-0.134200	-0.134400	-0.134500	-0.134700	-0.134800	-0.135000	-0.135100	-0.135200	-0.135300	-0.135400	-0.135500	-0.135600	-0.135700	-0.135700	-0.135800	-0.135900	-0.136000	-0.136000	-0.136100	-0.136200	-0.136200	-0.136300	-0.136300	-0.136400	-0.136400	-0.136500	-0.136500
180.000000	-0.039200	-0.040000	-0.040600	-0.041000	-0.041300	-0.041500	-0.040400	-0.041900	-0.042100	-0.042200	-0.042300	-0.042400	-0.042500	-0.042600	-0.042700	-0.042800	-0.042900	-0.042900	-0.043000	-0.043000	-0.043100	-0.043200	-0.043200	-0.043300	-0.043300	-0.043300	-0.043400	-0.043400	-0.043500	-0.043500	-0.043500	-0.043600	-0.043600	-0.043600	-0.043700	-0.043700	-0.043700	-0.043800	-0.043800
